time,seconds_elapsed,roll,rotationRateZ,quaternionY,rotationRateY,quaternionZ,quaternionW,yaw,devicelocation,accelerationZ,pitch,gravityX,gravityZ,quaternionX,rotationRateX,accelerationX,gravityY,accelerationY
1746575958439777800,0.24477783203125,0.10930138118161445,-0.006242393050342798,0.054184094995968136,-0.010763927362859249,-8.986726884287725e-18,0.9958426822447506,-0.008020708212905818,right,-0.008277297019958496,0.14635599179895403,1.0583100528948008,-9.643912676170467,0.07322143394371457,0.010915927588939667,-0.10203152149915695,-1.4301425471030176,0.2909230589866638
1746575958479777800,0.28477783203125,0.027254070952934528,-0.0027990671806037426,0.013526530458612766,-0.014535428956151009,0.0015557691001882696,0.9990420023977887,0.004248330339574605,right,0.005601406097412109,-0.08314998948297948,0.26631398162748665,-9.769138892251252,-0.041587988948936526,0.017864957451820374,-0.021228186786174774,0.8144847107227892,0.06031277775764465
1746575958519777800,0.32477783203125,0.013410291808080926,0.0036387648433446884,0.006554962416445097,-0.012194160372018814,0.0018467230656055774,0.9981181342249326,0.0045189825133994275,right,0.0015321969985961914,-0.12192883504983149,0.13052900779717602,-9.732968677717446,-0.060940260344186925,0.027045706287026405,-0.0074195098131895065,1.1927540330454707,0.019928298890590668
1746575958559777800,0.36477783203125,0.006695055775608268,0.007519697770476341,0.0031808155003214453,-0.01143859326839447,0.002072920386358899,0.997624523306895,0.0046172443406473414,right,0.0010418295860290527,-0.13765601392042115,0.06503372278343886,-9.713664842310548,-0.06878082127271275,0.0328129343688488,-0.0008250987157225609,1.3456861483059823,0.004516378045082092
1746575958599777800,0.40477783203125,0.004324471062801626,-0.0012993952259421349,0.0019892592750321647,-0.007031535729765892,0.002220933766809609,0.9975108843408922,0.004758334823841243,right,-0.001851499080657959,-0.14100439372058343,0.041986773591767994,-9.709231243777275,-0.07044857808177059,0.027042584493756294,-0.00003169989213347435,1.3782042700730264,0.002422243356704712
1746575958639777800,0.44477783203125,0.0042070650882639875,-0.004638947546482086,0.001935164778467014,-0.00862520094960928,0.0021649036409516825,0.9975168748036547,0.00463733434033944,right,-0.0015292167663574219,-0.14084164574685695,0.04084779615709558,-9.709460376358031,-0.07036715801013488,0.020356111228466034,-0.0005955961532890797,1.376624161274731,0.0005144476890563965
1746575958679777800,0.48477783203125,0.004036002369852531,0.00037050293758511543,0.0018519945460687135,-0.01059892401099205,0.0021382202509771958,0.997512765555585,0.004572035116767588,right,-0.0017414689064025879,-0.14096443788220478,0.03918618765438441,-9.709297879272698,-0.0704281570188171,0.01632549613714218,-0.0004555650521069765,1.3778164397992192,-0.002318829298019409
1746575958719777800,0.52477783203125,0.0037791121393448363,0.00656655989587307,0.0017195744766845703,-0.005571938585489988,0.0022118884210590895,0.9975200451280244,0.004701181066177062,right,-0.0008087158203125,-0.140759941164032,0.0366930259816465,-9.709589555695652,-0.0703259988978681,0.011887185275554657,-0.002849470591172576,1.375830818939954,-0.0035241246223449707
1746575958759777800,0.56477783203125,0.003340266314125789,0.007167857140302658,0.0014902049727887735,-0.005322351586073637,0.00239686242031921,0.9975571119505952,0.005039152866856946,right,-0.0023877620697021484,-0.13970050395070766,0.03243685952464584,-9.711056705638766,-0.06979735023481526,0.01112130843102932,-0.0024734768085181713,1.3655432336814701,-0.004175245761871338
1746575958799777800,0.60477783203125,0.002960341648326847,0.00552976131439209,0.001294378268208375,-0.00923357903957367,0.0025148811852037513,0.9975817646433452,0.00524801159944118,right,-0.0026392340660095215,-0.1389943957148316,0.02875023430061992,-9.712029934585093,-0.06944482855091536,0.007023119833320379,-0.003580573946237564,1.3586857690021394,-0.00167807936668396
1746575958839777800,0.64477783203125,0.002461599118218678,-0.0030097998678684235,0.001041933534044972,-0.006034495308995247,0.0025939572520195476,0.9975969787302581,0.005371211560121514,right,-0.001061558723449707,-0.13855937345321723,0.023907881436520256,-9.71263374569714,-0.06922727679076061,-0.001838137861341238,-0.0012342298869043589,1.3544606986530123,-0.0011916160583496094
1746575958879777800,0.68477783203125,0.0023281684911840546,-0.008278454653918743,0.0009854309203002004,0.004925865679979324,0.002456221365330544,0.997601835123633,0.00508564498403527,right,-0.002171158790588379,-0.13843105987206109,0.022612322917359415,-9.712810271307825,-0.06916296158273136,-0.004098422359675169,-0.0011592063819989562,1.3532144979842007,0.0009742379188537598
1746575958919777800,0.72477783203125,0.002359607655789994,-0.01140054501593113,0.0010203489409776148,0.004988452885299921,0.002177643149374565,0.9976023960639958,0.004529331291115897,right,-0.0024884939193725586,-0.13843276417549913,0.022917680805793497,-9.712807348698377,-0.06916356976370269,-0.008923199027776718,0.00044319056905806065,1.3532310107275842,-0.0015620291233062744
1746575958959777800,0.76477783203125,0.0025493099903762693,-0.001865302212536335,0.0011287689538058631,-0.0004812763072550297,0.001969589404232933,0.997597376444562,0.004125594796328651,right,-0.0026314258575439453,-0.13858717304786197,0.024759687376709187,-9.712593413686752,-0.06924056822767842,-0.004469399806112051,-0.0009314188500866294,1.3547307477660477,-0.0020871609449386597
1746575958999777800,0.80477783203125,0.0023672129959080163,0.0035481248050928116,0.0010282410761442017,0.0010898284381255507,0.002119184952602645,0.9976043914382344,0.004412589298482024,right,-0.0019878745079040527,-0.13837893171078264,0.022991721006250007,-9.712879829412698,-0.0691366655440919,-0.0041082510724663734,-0.0006427067564800382,1.3527081558972596,0.0006963461637496948
1746575959039777800,0.84477783203125,0.002185064397039769,0.008961551822721958,0.0009277138275357415,0.0026609329506754875,0.002268795080238749,0.9976114033513898,0.004699643586850146,right,-0.0013443231582641602,-0.13817073867036234,0.021223149564303455,-9.713165076094866,-0.06903275537833935,-0.003747102804481983,-0.00035393424332141876,1.3506860024198888,0.00347977876663208
1746575959079777800,0.88477783203125,0.002007684694166818,-0.004217255860567093,0.0008337698791109706,0.005420173052698374,0.002355445944004677,0.9976141730581198,0.004860989145228551,right,0.002256453037261963,-0.13808804211715592,0.019500453957542775,-9.713280811429023,-0.06899137010062899,-0.004771752282977104,0.0007770049851387739,1.349882723212987,0.0008309334516525269
1746575959119777800,0.92477783203125,0.0023739097864807074,-0.00823122076690197,0.0010229660074912003,0.006969541311264038,0.002245294124425904,0.9976080837627519,0.004665726523382496,right,-0.003621816635131836,-0.13826672889210545,0.023057128092390484,-9.713031220582128,-0.0690808289746367,-0.0034747333265841007,-0.0009170636767521501,1.351618314833939,0.002163305878639221
1746575959159777800,0.96477783203125,0.002487922738884947,-0.003879743628203869,0.0010870442044626652,0.005865409038960934,0.002133590494550716,0.9976009211857287,0.0044499745563519,right,-0.0020426511764526367,-0.13847846851881396,0.024163824392389503,-9.712742466768622,-0.06918645751613278,0.00006793439388275146,-0.00015432806685566902,1.3536749551028013,-0.0012377053499221802
1746575959199777800,1.00477783203125,0.0027530417811989327,0.004488369449973106,0.0012208303711300711,0.006047363858669996,0.002108280443878521,0.9976129703125284,0.00441707807813011,right,-0.002555668354034424,-0.1381246198672507,0.026740175403130704,-9.713214175933599,-0.06901022277145401,0.01823180913925171,0.00042156828567385674,1.3502379663914441,-0.0013655424118041992
1746575959239777800,1.04477783203125,0.0030712362943099004,0.002545595169067383,0.0013726177003654414,0.007348609622567892,0.0022129645625323883,0.9976414761776278,0.004647528951539747,right,-0.0015354752540588379,-0.13728167920605824,0.029834348876052533,-9.714339965093135,-0.06859024812140647,0.010035187005996704,0.0011854961048811674,1.342049837630242,0.0018036216497421265
1746575959279777800,1.08477783203125,0.003263116067634076,-0.005209671333432198,0.0014710032302925932,0.007752376142889261,0.002171331063081177,0.9976485673130524,0.004576885135332965,right,-0.002004683017730713,-0.13707357201030845,0.0316992454154999,-9.71461293681562,-0.06848659838674208,0.002051818184554577,0.0016389936208724976,1.3400281225442885,0.0026116669178009033
1746575959319777800,1.12477783203125,0.0035041124438772065,-0.006699415855109692,0.0016017684074694357,0.002175580710172653,0.0020048226065318762,0.9976396430638514,0.004260128619766827,right,-0.0019751787185668945,-0.13733769250525418,0.03403918928790372,-9.714250533244012,-0.06861835695536701,-0.005483335815370083,0.0009845695458352566,1.3425938813790679,-0.0012204647064208984
1746575959359778000,1.164778076171875,0.003512864149898639,0.0056589506566524506,0.0016046225794486165,-0.004877553787082434,0.002029246019780168,0.9976450218017446,0.004309392876780669,right,-0.001957714557647705,-0.13718007139079016,0.034124947325617536,-9.71446213016808,-0.06853977841041423,0.01339589525014162,0.00016347854398190975,1.3410627262890338,-0.0021591782569885254
1746575959399777800,1.20477783203125,0.003277603442207075,0.011621823534369469,0.0014704687757491823,-0.014457648620009422,0.0023017075389553453,0.9976798078968363,0.0048375809204084415,right,-0.0008792281150817871,-0.13614999099140393,0.03184402874762891,-9.715845693480968,-0.06802609287456246,0.02546597272157669,0.000904786167666316,1.3310552731461822,0.002402469515800476
1746575959439777800,1.24477783203125,0.003015989893880798,0.000841258093714714,0.0013365911723447264,-0.005154188722372055,0.0023735339744721446,0.9977029504467203,0.0049625883916731665,right,-0.0007714033126831055,-0.13546915402168108,0.029304956990375646,-9.716758132150769,-0.06768624185762216,0.01847543567419052,0.00009024748578667641,1.3244400927901268,0.0011574327945709229
1746575959479777800,1.28477783203125,0.002833063774381129,-0.0007474179146811366,0.0012496876176943796,-0.004413423594087362,0.0023334423725621316,0.9977342058707165,0.004868356934070235,right,-0.0018391609191894531,-0.134549760812475,0.027530944471620022,-9.717976860290765,-0.06722731671878024,0.020676808431744576,-0.002438028808683157,1.315505967967212,-0.00035987794399261475
1746575959519777800,1.32477783203125,0.002667835373020229,-0.00457491260021925,0.001173987269757923,-0.0023081544786691666,0.0022451532097930837,0.9977453067029339,0.0046797679017869,right,-0.0011014938354492188,-0.1342300093495455,0.02592637936879182,-9.718401223182678,-0.06706749562605846,0.017288783565163612,-0.0027649966068565845,1.3123985034711658,-0.0005093961954116821
1746575959559777800,1.36477783203125,0.002654121636434766,-0.010030580684542656,0.0011863136103877473,0.011414816603064537,0.001968636837810565,0.9977621851503798,0.004123845588477752,right,-0.0013593435287475586,-0.13374024995601655,0.02579480486139655,-9.719043028217554,-0.06682283081704844,0.006850643083453178,-0.00110952730756253,1.3076385955929755,0.0007637888193130493
1746575959599777800,1.40477783203125,0.0028786149819482426,-0.014853449538350105,0.0013243144213444245,0.003826688975095749,0.001572136526457675,0.9977610400380608,0.003344179622395061,right,-0.0007245540618896484,-0.13379059396302423,0.027976475732435935,-9.718971132025121,-0.06684765663852028,-0.0007929233834147453,0.00014897226355969906,1.3081279865451156,-0.0005263239145278931
1746575959639777800,1.44477783203125,0.003079860408231754,-0.01358656957745552,0.001437961534040546,0.008996015414595604,0.001368311171344754,0.9977629857405207,0.0029490105107116723,right,-0.00023871660232543945,-0.13373767228577352,0.029932585086137987,-9.719034844911098,-0.06682112834287843,0.0019878798630088568,0.0006584746297448874,1.3076136072821913,0.00010670721530914307
1746575959679777800,1.48477783203125,0.003039117941399758,-0.014330236241221428,0.0014347988505669733,-0.0009125117212533951,0.0011153393584703189,0.9977694065077485,0.0024389117572982217,right,-0.0026136040687561035,-0.13355511936278847,0.029537334124278277,-9.71927449888587,-0.06672966547915808,0.006494306027889252,-0.0002778768539428711,1.305839291086048,-0.0003293752670288086
1746575959719777800,1.52477783203125,0.00286526211201647,-0.008073622360825539,0.0013665685185526336,0.0004661895800381899,0.0008484091831463723,0.9977852341794949,0.0018915377614306741,right,-0.0022621750831604004,-0.13309176900544095,0.02784931025538826,-9.719883570694924,-0.0664980362256967,0.013621576130390167,0.00035946094430983067,1.301335696056485,0.0005579590797424316
1746575959759777800,1.56477783203125,0.0025744911231322335,-0.01576605811715126,0.0012363626521820915,-0.009017727337777615,0.0006411199617398988,0.997814899604421,0.0014554783552251905,right,-0.00036716461181640625,-0.13220658670703328,0.025026003312831745,-9.721039170470833,-0.06605602798075574,0.020308932289481163,-0.0006815668893978,1.292731387709826,-0.00023634731769561768
1746575959799777800,1.60477783203125,0.0025167354906470954,-0.01522847916930914,0.0012174441544395543,-0.0050238436087965965,0.0004990758483235159,0.9978472276759632,0.0011656769647696182,right,-0.002874016761779785,-0.13122908075935216,0.024467727825965267,-9.722299399664998,-0.06556813789102024,0.02836497873067856,-0.0018712200690060854,1.2832283769577741,0.0019255727529525757
1746575959839777800,1.64477783203125,0.002217065670678462,-0.014962885528802872,0.0010887447786099677,-0.003850453533232212,0.0001962850588821836,0.9978901879951757,0.0005376237402957671,right,-0.0010485053062438965,-0.1299200638863355,0.02155795045964187,-9.723978146532177,-0.064914611631928,0.030589772388339043,0.0006750533357262611,1.270500558940321,-0.0020427852869033813
1746575959879777800,1.68477783203125,0.0021603261795534296,-0.003957236185669899,0.0010748105896344745,0.0017088083550333977,-0.00002053027911517938,0.9979420918633526,0.00009764379967113049,right,-0.0006083846092224121,-0.12831256633080662,0.021010602792166173,-9.726008775576949,-0.06411229711524045,0.03861303627490997,-0.0007726724725216627,1.2548675210006535,-0.002649262547492981
1746575959919777800,1.72477783203125,0.0022821827732165192,0.00021363282576203346,0.001136095371139804,0.007213529199361801,-0.00003013996323543137,0.9979811620481658,0.00008481146423487775,right,-0.0006613731384277344,-0.1270869091361217,0.022199273720616475,-9.72753730031848,-0.06350070677886624,0.02478620409965515,0.0008460709359496832,1.2429459047995508,-0.0006713718175888062
1746575959959777800,1.76477783203125,0.0025309066226379914,-0.0002686519001144916,0.0012598041352085588,0.009485733695328236,-0.00003094186306685663,0.9979958915013926,0.00009843397484480685,right,-0.0011581182479858398,-0.12661666480083916,0.024620219540514517,-9.72811480794549,-0.06326606347748337,0.0077141206711530685,0.0005298999603837729,1.2383714364908636,0.0007308274507522583
1746575959999777800,1.80477783203125,0.0028789502351245166,-0.0038252598606050014,0.00143767850195763,0.001282225362956524,-0.0001083788098690237,0.9979919669133089,-0.00003451886408593715,right,-0.003712773323059082,-0.12673383715035874,0.02800560821208637,-9.727960494166613,-0.06332442888513182,-0.007190384902060032,0.0002781336661428213,1.2395112541757523,-0.0027496889233589172
1746575960039777800,1.84477783203125,0.002887164366244172,0.005674510728567839,0.0014393618259456605,-0.0023375721648335457,-0.00007064359688176243,0.9979905731076177,0.00004168952556455819,right,-0.0030617713928222656,-0.12677876988985307,0.02808535435083322,-9.727904380065203,-0.06334690256437416,-0.001295620109885931,-0.0000958791933953762,1.2399483304187655,-0.002150997519493103
1746575960079777800,1.88477783203125,0.0026536435285967126,0.012922985479235649,0.0013092781871865892,-0.010495467111468315,0.0001506859392807224,0.9979941278839064,0.00047027424352910933,right,-0.001803755760192871,-0.12667219254883366,0.02581403700154042,-9.728042911753057,-0.06329400890171984,0.0026742862537503242,-0.000887212110683322,1.238911534716934,-0.002131626009941101
1746575960119777800,1.92477783203125,0.002183343561863849,0.01532346848398447,0.0010512846165567854,-0.007917189039289951,0.0005365410736148506,0.9980121432041222,0.001213065509615813,right,-0.001376330852508545,-0.12610324879583543,0.021240472875151316,-9.728757197502254,-0.0630104689314335,0.01653679832816124,0.00037986692041158676,1.2333766969434916,-0.0014334842562675476
1746575960159777800,1.96477783203125,0.001757017196331143,0.005528455600142479,0.0008318395125498892,-0.00907067023217678,0.0006586179131246527,0.9980239980129944,0.0014304455249681762,right,-0.0013377666473388672,-0.1257313993378748,0.017093649685784473,-9.729223061448335,-0.06282488630974457,0.011747289448976517,0.0004939615027979016,1.2297589448377488,-0.0013706013560295105
1746575960199777800,2.00477783203125,0.0012344329533974195,-0.012590808793902397,0.0005807099858425006,-0.0032984232529997826,0.0005241486517108993,0.9980387643743519,0.0011277771510715437,right,0.00006467103958129883,-0.12526987670168227,0.012010006870608776,-9.729797646465897,-0.06259431651966832,0.006549859419465065,0.001577687682583928,1.225268501550704,-0.0002858787775039673
1746575960239777800,2.04477783203125,0.0009888826767104689,-0.01601032353937626,0.0004767176480043007,-0.0029905815608799458,0.00023647607136265123,0.9980423434744214,0.0005358454454200346,right,0.00002282857894897461,-0.12516083814358725,0.009620983709068968,-9.729933840066193,-0.06253970148844754,-0.0026246439665555954,0.0005557892145588994,1.224207594320923,-0.000100746750831604
1746575960279777800,2.08477783203125,0.0008125868531042289,-0.003273535519838333,0.00040351663169288727,-0.002619148464873433,0.000006141421258912358,0.9980389856553159,0.00006326932362697864,right,0.000017344951629638672,-0.12526828328968073,0.00790552955220337,-9.729803491684795,-0.06259320813190347,0.00033261976204812527,-0.0005865963757969439,1.2252530117206275,-0.00033442676067352295
1746575960319777800,2.12477783203125,0.0004525907022770691,0.005884108133614063,0.0002220952912375778,-0.013389116153120995,0.00004571446182086711,0.998038361023688,0.00011999826382920429,right,-0.002712726593017578,-0.12528979274460292,0.004402825510740512,-9.729779526287317,-0.06260394640996368,-0.004289848729968071,-0.0014117490500211716,1.2254622705571352,0.0006872862577438354
1746575960359778000,2.164778076171875,-0.000007692019512177715,0.008174760267138481,-0.000014183365924155805,-0.014330810867249966,0.00016515871486042424,0.9980384052041013,0.0003304841513070403,right,-0.002274036407470703,-0.12529097278584597,-0.00007562408923913608,-9.729778941765428,-0.06260451766489182,0.0036065829917788506,-0.0005923557328060269,1.2254738148644566,0.0005708783864974976
1746575960399777800,2.20477783203125,-0.0006213057897947973,-0.002549394965171814,-0.00033106652393464435,-0.020340994000434875,0.00035527769018521094,0.9980472752611254,0.000673061954215677,right,-0.001680135726928711,-0.1250044878412649,-0.0060461677043989765,-9.730127901333569,-0.06246144549409531,0.012229971587657928,-0.0015200050547719002,1.2226863030377775,0.003251098096370697
1746575960439777800,2.24477783203125,-0.001010794888298065,-0.0014163675950840116,-0.0005238812739112156,-0.01278458908200264,0.00034401595824194015,0.9980679309797414,0.0006264420604487449,right,-0.0029401779174804688,-0.12433910980189937,-0.009836765901197213,-9.730936295107007,-0.06212934420399543,0.02476566657423973,-0.0008582803420722485,1.216211846326664,0.0033293142914772034
1746575960479777800,2.28477783203125,-0.001633833662923625,-0.010179754346609116,-0.0008247185946933275,-0.016269322484731674,0.00020194691983554876,0.9981060517787026,0.0003039706608074613,right,-0.0022689104080200195,-0.12309989724744777,-0.01590196481634048,-9.732427410447597,-0.061510947970576026,0.03451414778828621,-0.001781676895916462,1.2041522098943591,0.0005537346005439758
1746575960519777800,2.32477783203125,-0.002282097310125554,0.004278034903109074,-0.0011378948798477471,-0.010759635828435421,0.000051424330119624115,0.9981691085848647,-0.00003522456270879026,right,-0.0006324052810668945,-0.12102290700283604,-0.022216800244152544,-9.734895261865853,-0.060474511442429636,0.05309446528553963,-0.0009749564342200756,1.1839354243610054,-0.0025765150785446167
1746575960559777800,2.36477783203125,-0.0027200042092738906,0.004788519814610481,-0.0013603625369673776,-0.012183958664536476,0.00012793509298524526,0.9982108168702046,0.0000934432055492759,right,-0.00018006563186645508,-0.11962570226730956,-0.02648425071357051,-9.736529585069418,-0.05977707454042506,0.04524456337094307,-0.0002783120144158602,1.1703325770746915,-0.0007353946566581726
1746575960599777800,2.40477783203125,-0.0032143335495645165,0.0030299376230686903,-0.0016146776400917952,-0.0029317429289221764,0.000269252571321828,0.9982643576018513,0.00034988902349297036,right,0.0006442666053771973,-0.11780536215075652,-0.03130409491833998,-9.738629187697171,-0.0588682721808648,0.020899435505270958,-0.00028404733166098595,1.1526068046394735,0.0006444305181503296
1746575960639777800,2.44477783203125,-0.003210748059158512,-0.00009935116395354271,-0.0016139599592344608,-0.0005882491823285818,0.00028733400204107514,0.9982710763625298,0.00038669053289018735,right,-0.0008274316787719727,-0.11757679169009816,-0.031270021402090786,-9.738892807069421,-0.058754155720861755,0.004535002633929253,-0.00047503644600510597,1.1503807991530746,0.0010286793112754822
1746575960679777800,2.48477783203125,-0.00317628789111764,-0.0013368007494136691,-0.0015939732513474498,0.0024076998233795166,0.00023902494061883977,0.998267332969233,0.00029172746937467393,right,-0.0005972981452941895,-0.11770711076727633,-0.030933941865118685,-9.738743753987551,-0.05881928041280189,-0.002302811946719885,-0.0008711328264325857,1.1516499423060564,-0.00217505544424057
1746575960719777800,2.52477783203125,-0.003093882681441205,0.004909052979201078,-0.0015549450220236891,0.0006055805133655667,0.0002722930558985431,0.9982631059580434,0.00036301118675346095,right,-0.001880049705505371,-0.11785254262664362,-0.03013090012023458,-9.738578918814659,-0.05889182479461579,-0.0019922093488276005,-0.0013041861820966005,1.1530662388447672,-0.0032599419355392456
1746575960759777800,2.56477783203125,-0.003142634505837296,0.009888135828077793,-0.0015927920858477827,-0.0040332721546292305,0.0005030012100327631,0.998266141178281,0.0008225216502377553,right,-0.0009124279022216797,-0.1177443260125256,-0.030606063900911248,-9.738701668411492,-0.05883744065014129,0.004851320292800665,-0.0014551854692399502,1.1520123458776623,-0.0018716901540756226
1746575960799777800,2.60477783203125,-0.003361519651906206,0.0018678847700357437,-0.0017166485976143125,-0.002831558231264353,0.0007580403025370178,0.9982719550922007,0.0013209291145929569,right,-0.00003898143768310547,-0.11753463973725205,-0.03273853218522854,-9.738936061689257,-0.058732298261980245,-0.0026765819638967514,-0.00006228568963706493,1.1499702455908059,-0.00008010119199752808
1746575960839777800,2.64477783203125,-0.0035308954628685933,-0.014477172866463661,-0.0017953456632088028,0.0029410608112812042,0.0006640627507720717,0.9982756680437054,0.001122905401327864,right,0.0014084577560424805,-0.1174066491769233,-0.034388591814041136,-9.739077515986562,-0.058668525051328725,-0.002701411722227931,0.0016858145827427506,1.1487237526610492,0.001352056860923767
1746575960879777800,2.68477783203125,-0.003296623617791306,-0.012108393013477325,-0.0016610898869957402,0.011957046575844288,0.0003623029941241249,0.99826894298791,0.0005317178118791729,right,-0.0011218786239624023,-0.1176479347357387,-0.03210608406716492,-9.738808051395416,-0.05878953000987978,-0.015141813084483147,-0.0003010192885994911,1.1510736767880618,0.0012084618210792542
1746575960919777800,2.72477783203125,-0.0030068338819085735,-0.002618301659822464,-0.0015092785014133323,0.007859699428081512,0.00023222776110277135,0.998253904549219,0.0002874043580406019,right,-0.00021219253540039062,-0.11816843842023883,-0.02928207158842124,-9.738216515243053,-0.059049564358232075,-0.0122951315715909,-0.000056960154324769974,1.1561425775501877,0.0002285987138748169
1746575960959777800,2.76477783203125,-0.0028244976068601247,-0.00013991119340062141,-0.0014178946738705707,0.0010693147778511047,0.00022059770105067064,0.9982432639850111,0.00027437765183502256,right,-0.0013789534568786621,-0.11853280547588432,-0.027505248341360127,-9.737799751135706,-0.05923145903685804,-0.011680911295115948,-0.0010599312372505665,1.159690844616294,0.0009258389472961426
1746575960999777800,2.80477783203125,-0.0029495477787308084,0.005471401382237673,-0.0014849880389297542,-0.0030350442975759506,0.0003030029390903986,0.9982312741766425,0.00043147550166795117,right,-0.0009751319885253906,-0.11893138183352657,-0.028721597294602542,-9.737333302667736,-0.05943026879255039,-0.008040403015911579,0.0006000972352921963,1.1635719968985765,0.0012253671884536743
1746575961039777800,2.84477783203125,-0.002896955208776365,0.012024568393826485,-0.0014754397790515956,0.00131688779219985,0.0005812464693176211,0.9982232907211357,0.0009917021505546867,right,-0.0019667744636535645,-0.11919746735537293,-0.028208585721568667,-9.737024675109982,-0.05956267169905279,-0.004000530112534761,-0.00170124601572752,1.1661629632398485,0.002359554171562195
1746575961079777800,2.88477783203125,-0.0029544716161320553,0.003908409737050533,-0.0015097010665837702,0.0068732029758393764,0.0006761884256516611,0.9982244304078404,0.0011785524972106076,right,0.000010609626770019531,-0.11915558615494806,-0.028768770037731154,-9.737072021383046,-0.0595416111074963,0.0183242317289114,-0.0008942924905568361,1.1657551130913197,-0.0003895014524459839
1746575961119777800,2.92477783203125,-0.002929636876902375,0.0021768766455352306,-0.0014895869321239253,0.007309739477932453,0.0005472611874081418,0.9982395487783228,0.000922446835525723,right,0.00008040666580200195,-0.11865043765923944,-0.028528673104965128,-9.73766063492596,-0.059289682166336254,0.01812676154077053,-0.001164003973826766,1.1608362883243708,-0.0017502307891845703
1746575961159777800,2.96477783203125,-0.002904673118484571,0.00044534378685057163,-0.0014694720275391128,0.00774627598002553,0.0004183238842979021,0.9982545474341552,0.0006663238162484707,right,0.00014990568161010742,-0.11814529309208494,-0.02828728383083362,-9.738246325859427,-0.05903774958036686,0.01792929135262966,-0.0014338467735797167,1.1559171712964773,-0.003110930323600769
1746575961199777800,3.00477783203125,-0.002653712079075138,0.00563048105686903,-0.0013450131474923555,0.009414278902113438,0.00042568207565496654,0.9982763252710705,0.000696865833669746,right,-0.001165151596069336,-0.11741210475438198,-0.025845605750160757,-9.7390979742527,-0.05867182085694228,0.011774016544222832,-0.00019518309272825718,1.1487768710877746,-0.0004956275224685669
1746575961239777800,3.04477783203125,-0.002103615341413548,-0.002335774479433894,-0.0010740527549643346,0.01604977808892727,0.00047167889407695137,0.998284334296083,0.0008216196310385982,right,-0.0014963150024414062,-0.11714896152276935,-0.020488791424746158,-9.739412447029352,-0.05854052384451265,-0.00734650669619441,0.0012145404471084476,1.1462140348624437,0.0018315613269805908
1746575961279777800,3.08477783203125,-0.0017520848044407405,-0.004069054499268532,-0.0008952336264447431,0.011221683584153652,0.00040370060016295633,0.9982781065482119,0.0007058556807581764,right,-0.0018471479415893555,-0.11736864820601255,-0.017064646211941724,-9.739166947835683,-0.05865031171857607,-0.008280032314360142,0.0009458534186705947,1.1483536772396414,-0.0010070353746414185
1746575961319777800,3.12477783203125,-0.0014683432602701433,-0.0006279309745877981,-0.0007486356572139228,0.001791665330529213,0.00031002324464683874,0.998264210936584,0.0005345048731469245,right,-0.0038779377937316895,-0.11784634856788269,-0.014300433062459341,-9.738622173434495,-0.05888887035067154,-0.012305565178394318,-0.00033626321237534285,1.1530059600248932,0.0007656142115592957
1746575961359778000,3.164778076171875,-0.0013651363515384636,0.008487965911626816,-0.0007022032279763737,0.0027016617823392153,0.00039238974507841155,0.9982548488953588,0.0007054027251269734,right,-0.0018225312232971191,-0.11816350470868694,-0.01329483964142273,-9.738257431775331,-0.059047129651884654,-0.005212732590734959,0.00005956925451755524,1.156094573689997,-0.00014705955982208252
1746575961399777800,3.20477783203125,-0.0012214130086893391,0.008849021047353745,-0.0006532630152104094,-0.0017189682694151998,0.0007737990093679369,0.9982560757024475,0.00147808225393367,right,-0.0018676519393920898,-0.11811753108447166,-0.011895288741536204,-9.738312376832962,-0.05902396026682725,0.006227779667824507,0.00020613893866539001,1.1556468299224971,0.0030211880803108215
1746575961439777800,3.24477783203125,-0.0013184861088452304,0.002205580472946167,-0.0007021849699808089,0.00045806856360286474,0.0007862863268597644,0.9982646465939948,0.001497541794859949,right,-0.00037419795989990234,-0.11782318209506219,-0.012841064567002467,-9.73865081500709,-0.05887700116146309,0.009424993768334389,-0.0007692626677453518,1.1527803345754741,0.0005096569657325745
1746575961479777800,3.28477783203125,-0.0014419804059233798,-0.0024756016209721565,-0.0007547964587222967,0.006079098209738731,0.0006386342019191496,0.9982767764782723,0.00119472283916233,right,0.0001303553581237793,-0.11741161051828401,-0.014044415899709565,-9.739122524172068,-0.05867163916317312,0.009905909188091755,0.0017301567131653428,1.1487720487821846,0.0024479329586029053
1746575961519777800,3.32477783203125,-0.0013584892639179104,-0.006650660652667284,-0.0007005852279844944,0.0035816188901662827,0.0004231322559997597,0.9982799709653877,0.0007679502904626,right,-0.00037479400634765625,-0.11730772837572077,-0.013231447557499632,-9.739242935681343,-0.058619964672522,0.001279572956264019,0.0016025761142373085,1.1477603875216096,0.0018435195088386536
1746575961559777800,3.36477783203125,-0.0013266138954903083,-0.002829240867868066,-0.0006756650898363631,0.0014562173746526241,0.0002687622479588188,0.9982800568482981,0.00046054954026321436,right,-0.0005266666412353516,-0.11730867769987866,-0.012921004785283002,-9.739242351159453,-0.05862054688624214,0.00424877367913723,0.00033952435478568077,1.147769593741372,0.0001835152506828308
1746575961599777800,3.40477783203125,-0.0014790783284268664,0.0032458023633807898,-0.0007504869207673365,-0.008999627083539963,0.0002516178737822782,0.9982848368466484,0.0004173691529253251,right,-0.0010432004928588867,-0.1171431363909657,-0.014406173300632508,-9.739429982686042,-0.05853791511875279,0.0049565574154257774,-0.0006825624732300639,1.1461573362391442,0.0005322247743606567
1746575961639777800,3.44477783203125,-0.0017863405203479403,0.008533471263945103,-0.000909448622080318,-0.004207924474030733,0.0003561879839545366,0.9982877192405597,0.000608941776408574,right,-0.001291811466217041,-0.11703982089320743,-0.017398942500492558,-9.739543379932641,-0.058486218743265976,0.0024065361358225346,0.0004120024386793375,1.1451510818060486,0.0013635233044624329
1746575961679777800,3.48477783203125,-0.0018998970541320515,-0.0023608971387147903,-0.0009740652446334789,-0.008348900824785233,0.000495078656176048,0.9982888327514872,0.0008805859101548367,right,-0.0017670989036560059,-0.11699737700899003,-0.018505023454205363,-9.739590141683816,-0.05846488199516879,0.002610210096463561,-0.0018358419183641672,1.1447376786995678,0.0009225979447364807
1746575961719777800,3.52477783203125,-0.002021931323531512,-0.008063716813921928,-0.0010322395711481502,-0.003968046046793461,0.00045301964192752853,0.9983027759833346,0.0007896485394497454,right,-0.002026379108428955,-0.11651986768477847,-0.019694691038143353,-9.740133162519335,-0.05822654782608449,0.014665723778307438,-0.00209460174664855,1.1400868572190404,0.0019127950072288513
1746575961759777800,3.56477783203125,-0.002109099172286369,-0.007369922008365393,-0.0010664464397898378,-0.0017800002824515104,0.00029659701304246875,0.9983189521636316,0.00047176676848056817,right,-0.0012500286102294922,-0.11596311084749879,-0.020545051656628493,-9.740765030682086,-0.05794879054407002,0.012352298945188522,-0.002588248811662197,1.1346637361917644,0.00047160685062408447
1746575961799777800,3.60477783203125,-0.002018272076601347,0.001482249703258276,-0.0010173057138815013,0.003137323772534728,0.00022868433914781486,0.9983341545983108,0.0003415097082045104,right,-0.0011731386184692383,-0.11543787528436952,-0.019661526270769534,-9.741361243009568,-0.0576866946746635,0.013435011729598045,-0.0021789665333926678,1.1295474160913377,-0.0029268190264701843
1746575961839777800,3.64477783203125,-0.0018038855472360567,0.005149288102984428,-0.0009161839357591102,0.006759235635399818,0.0003252200957886209,0.9983486037307189,0.0005477330606575152,right,-0.0009229183197021484,-0.11493932197693126,-0.0175741232541739,-9.741927060198783,-0.05743776001659158,0.009519812650978565,-0.0005706102820113301,1.124690623709932,-0.0006705150008201599
1746575961879777800,3.68477783203125,-0.0014199914143698763,0.001678547589108348,-0.0007305980969502392,0.011737136170268059,0.000419689049955834,0.9983535595094893,0.0007591855594670987,right,-0.00008744001388549805,-0.11477137761852489,-0.01383452116731787,-9.742122290509938,-0.05735390973300549,-0.007319032214581966,0.0013275938108563423,1.1230545469406992,0.001740574836730957
1746575961919777800,3.72477783203125,-0.0008452134345417761,-0.006258739158511162,-0.00044117596686499955,0.015059523284435272,0.0003581847781758262,0.9983376786371193,0.0006687686269406228,right,-0.0017052292823791504,-0.11533100745344661,-0.008234429288073442,-9.741498605653643,-0.05763339879717925,-0.018814943730831146,-0.00007933069719001651,1.1285063095405696,0.0021096542477607727
1746575961959777800,3.76477783203125,-0.0003053124910717987,-0.005323796067386866,-0.00016465168566722756,0.01141355186700821,0.00021960999445054668,0.9983142014426281,0.00042221110725344796,right,-0.0027309656143188477,-0.11614750267556155,-0.0029747021077404494,-9.740576814633608,-0.05804107728987367,-0.01394747756421566,-0.00018647406250238419,1.136459825828299,0.0011540576815605164
1746575961999777800,3.80477783203125,-0.000032993242044770844,0.004330116789788008,-0.00002958199260091581,0.0016823261976242065,0.0002257279004820603,0.9983024304215151,0.00045029860027373926,right,-0.004010140895843506,-0.1165520191805538,-0.00032214034528733464,-9.740116795906424,-0.0582430235750143,-0.0018984675407409668,-0.00003686900527100079,1.14040001482144,0.001667797565460205
1746575962039777800,3.84477783203125,-0.00017607229746669127,0.007181160151958466,-0.00010852069257389262,-0.008582094684243202,0.0003595773601759584,0.9983100310431281,0.000710122906035016,right,-0.0013468265533447266,-0.11628950431933936,-0.0017157993615655868,-9.740415486592054,-0.058111958134800086,0.01704585738480091,-0.0005052874330431223,1.137843023815006,0.001816578209400177
1746575962079777800,3.88477783203125,-0.0006008995426465209,-0.0010964665561914444,-0.0003279000937938712,-0.01577484980225563,0.0005012198229526147,0.9983358451620166,0.0009694019345430009,right,0.0016893744468688965,-0.1153942155561788,-0.00585440285456425,-9.74142846302688,-0.05766494461892663,0.023659003898501396,0.00035059420042671263,1.1291221033513545,0.003765977919101715
1746575962119777800,3.92477783203125,-0.0010493444151540017,-0.014680148102343082,-0.0005497096968791669,-0.009213866665959358,0.00048261016655186986,0.9983674961424753,0.0009067698370704196,right,0.002595663070678711,-0.11428730495968704,-0.010224201166070998,-9.742668818476796,-0.05711230665336632,0.029439644888043404,0.00035813392605632544,1.1183384782042354,0.0039702728390693665
1746575962159777800,3.96477783203125,-0.0010812339261241403,-0.017711838707327843,-0.0005517690205407346,0.002728682942688465,0.00024243826805812416,0.9983932656115299,0.00042429340940643596,right,0.0010109543800354004,-0.11338471717046246,-0.010535977378848474,-9.743674196127056,-0.05666186973389567,0.01665201038122177,-0.0005023867124691606,1.1095444194391368,0.00312766432762146
1746575962199777800,4.00477783203125,-0.0008668543811875104,-0.005933568812906742,-0.00043134711901133573,0.004835984669625759,-2.506877144531089e-7,0.9984119518440085,-0.00004941247497185651,right,-0.00028318166732788086,-0.11272596252783272,-0.008447765507255098,-9.744404848489165,-0.056333148202704394,0.0190275926142931,-0.0005905608995817602,1.1031254923075438,-0.0006588026881217957
1746575962239777800,4.04477783203125,-0.0007129265783471565,0.0026155561208724976,-0.0003528093828145259,-0.0022983462549746037,-0.00003526647079817849,0.9984326311563676,-0.00011060665025247004,right,-0.002968430519104004,-0.11199245820277214,-0.006948405211415956,-9.745212657740712,-0.05596698214823567,0.01743011362850666,-0.0017629500944167376,1.095977593314275,0.00022063404321670532
1746575962279777800,4.08477783203125,-0.0009413276758369921,0.008086765184998512,-0.00047307759500787747,-0.010995307937264442,0.0000825866361687957,0.9984511658651987,0.00011297962053973435,right,-0.0027886629104614258,-0.11132294274417741,-0.00917491073802521,-9.745942141059041,-0.055632702456533775,0.015599070116877556,-0.0014403850072994828,1.0894527946554124,-0.0011865124106407166
1746575962319777800,4.12477783203125,-0.0012998811732735898,0.010904911905527115,-0.0006634081323693753,-0.009439485147595406,0.00029700158887695905,0.9984684876094722,0.0005228973351914161,right,-0.001918017864227295,-0.11069213459717879,-0.012670242611318825,-9.746623693582414,-0.055317635556528785,0.012535964138805866,-0.0007889270782470703,1.0833047934196889,-0.0015016794204711914
1746575962359778000,4.164778076171875,-0.001775787325616794,0.011027656495571136,-0.0009093828598966626,-0.00337696960195899,0.00046323136054989846,0.9984845984515353,0.0008300136394081905,right,0.0009973645210266113,-0.11009886362144589,-0.017309856569598193,-9.747257315310835,-0.05502124121944772,0.0175747312605381,-0.0005864920094609261,1.0775221914302557,-0.004182659089565277
1746575962399777800,4.20477783203125,-0.002046334989142655,0.00304537545889616,-0.001050422878593891,-0.0021124437917023897,0.0005814211963515532,0.9985018436002078,0.0010524741406495216,right,-0.00041872262954711914,-0.10946475956648645,-0.019948348422092383,-9.747933607137202,-0.054704484958632296,0.01384393684566021,-0.0010888909455388784,1.0713411647077649,-0.0012791603803634644
1746575962439777800,4.24477783203125,-0.002175540868193685,0.00019926042295992374,-0.0011139442811345806,0.00538127776235342,0.000569359388564122,0.9985198660169208,0.001021938637512599,right,0.0011500716209411621,-0.1088014143820589,-0.021209379050566347,-9.748639709579944,-0.054373285905802336,0.017939545214176178,-0.0006803963333368301,1.0648746721073985,-0.0027743875980377197
1746575962479777800,4.28477783203125,-0.0020916075313172403,0.000664598192088306,-0.0010715178923828457,0.0076541900634765625,0.0005603168245303014,0.9985411493991289,0.0010091962229824983,right,0.00006443262100219727,-0.10801683005937995,-0.020392884169064925,-9.749473822316526,-0.05398160190115762,0.017550382763147354,-0.0009665261022746563,1.057225691724196,-0.0010363012552261353
1746575962519777800,4.32477783203125,-0.001822583215591681,-0.00003208382986485958,-0.0009381652958330985,0.009457440115511417,0.0005733136058497278,0.9985578978365266,0.0010503154956991677,right,-0.0004055500030517578,-0.10740063166395424,-0.017771222437074175,-9.750128486832976,-0.053674002966899496,0.009482092224061489,-0.000041113351471722126,1.0512179026767612,0.00015090405941009521
1746575962559777800,4.36477783203125,-0.0015030812478300773,-0.004248718731105328,-0.0007760984315144386,0.007402578368782997,0.0005184414684114902,0.9985658367561255,0.0009577962577350162,right,-0.0006006956100463867,-0.1071116640554395,-0.014656492516602155,-9.75043711439073,-0.053529852080829235,0.00229948153719306,0.0003430349752306938,1.0484003610379993,0.0006437152624130249
1746575962599777800,4.40477783203125,-0.001311366103267458,-0.0017939498648047447,-0.0006777481141995904,0.003991933073848486,0.0004646973736369564,0.9985694556500122,0.0008605160662652172,right,-0.002656698226928711,-0.10697694349956201,-0.012787370751542038,-9.750580906775593,-0.053462674952999445,0.0030437849927693605,-0.0008932556957006454,1.047086794221401,-0.00032231956720352173
1746575962639777800,4.44477783203125,-0.0013717607451397464,0.003644290380179882,-0.0007101410923090292,-0.003953666891902685,0.0005090885683052333,0.9985762809266355,0.0009463616019729596,right,-0.001483917236328125,-0.10672046212685614,-0.013376621331984643,-9.75084861780107,-0.0533345717525637,0.010103815235197544,-0.002627018606290221,1.0445859173163772,-0.0007159188389778137
1746575962679777800,4.48477783203125,-0.0015033442675155349,0.011456238105893135,-0.000784852437339134,-0.003957865759730339,0.0006852769477898538,0.9985957704200403,0.0012927430041919394,right,-0.0022736191749572754,-0.10598128943383694,-0.014660828481713541,-9.751616095042229,-0.05296533928244749,0.021714605391025543,-0.003833176102489233,1.0373780317641794,0.00017064064741134644
1746575962719777800,4.52477783203125,-0.0018115911798466105,0.0072997696697711945,-0.0009469824375644157,-0.00265384279191494,0.0008555210452623152,0.9986230953290994,0.001618263572155905,right,-0.00006622076034545898,-0.10493523816990252,-0.017668689077784072,-9.752691030797362,-0.05244278027108543,0.028309371322393417,-0.0023010808508843184,1.0271768096148968,-0.0010970532894134521
1746575962759777800,4.56477783203125,-0.00194368682109025,-0.004787278361618519,-0.0010100463093917697,0.009262935258448124,0.0008113139421032325,0.9986537582304548,0.00152388857245051,right,0.0003318190574645996,-0.10375701438063835,-0.018959316835145,-9.753892223280667,-0.05185446329422651,0.02577894553542137,0.0004631874617189169,1.0156851823288946,0.0006419792771339417
1746575962799777800,4.60477783203125,-0.001655921571509664,-0.01221533864736557,-0.000853023123561812,0.012303072027862072,0.0005494078889392335,0.9986690726094025,0.0010147767307232287,right,-0.0006377696990966797,-0.10317808220587797,-0.016153456501022446,-9.75448317491114,-0.05156571766216062,0.002833092585206032,0.0005252445116639137,1.0100381894178687,-0.0005204826593399048
1746575962839777800,4.64477783203125,-0.0012117829886301884,-0.0070514194667339325,-0.0006198604878611021,0.012089951895177364,0.0003169887930612643,0.998664571279114,0.000572142615328782,right,-0.0018297433853149414,-0.10336320949306572,-0.01182088549818727,-9.754302557647227,-0.05165841623201083,-0.010844526812434196,0.0019390461966395378,1.0118439967308193,-0.0013142898678779602
1746575962879777800,4.68477783203125,-0.0009921096192779184,0.0015254262834787369,-0.0005085758707487338,-0.003482886590063572,0.0002790955991839559,0.9986462601966106,0.0005072747587278668,right,-0.003998696804046631,-0.10407417880951193,-0.009677409479377092,-9.753583011201023,-0.052013471642877306,-0.025871410965919495,0.00028169131837785244,1.018778764430061,-0.0009373053908348083
1746575962919777800,4.72477783203125,-0.0012163481729617824,0.014088789001107216,-0.0006304611742242888,-0.01109173521399498,0.0004710037603772561,0.9986147273856305,0.0008792294841210023,right,-0.004099249839782715,-0.1052751700153625,-0.01186304071454797,-9.752350254535674,-0.052612996088695616,-0.03384716436266899,0.0011820286745205522,1.0304919985774903,-0.00003734976053237915
1746575962959777800,4.76477783203125,-0.0015356648737695055,0.013733112253248692,-0.0008104200007538275,-0.017916351556777954,0.0008606967623127992,0.9985834390041032,0.0016420271185543782,right,-0.004200279712677002,-0.10644353110362664,-0.014975268150679765,-9.751135033527015,-0.053195977861172444,-0.026694511994719505,-0.0001711111981421709,1.0418855723164975,0.0013526380062103271
1746575962999777800,4.80477783203125,-0.0019699189495950968,0.010753695853054523,-0.0010412401083954759,-0.012000344693660736,0.0011291827612183556,0.9985658205142117,0.002156031300617679,right,-0.005867302417755127,-0.10708672015195801,-0.019208412208408115,-9.75045523456931,-0.05351666014992576,-0.009956376627087593,-0.0012449307832866907,1.0481571268666534,0.0016023069620132446
1746575963039777800,4.84477783203125,-0.002738530387769602,0.003689488396048546,-0.0014280221002693713,-0.022125303745269775,0.0012067056559520737,0.9985666199968088,0.0022701732362518908,right,-0.005465686321258545,-0.10703640649635408,-0.02670286190031329,-9.750490305882693,-0.053491020371339265,0.013759009540081024,-0.0037253196351230145,1.0476665668707341,-0.0036404430866241455
1746575963079777800,4.88477783203125,-0.0037270217834863193,0.020277956500649452,-0.0019314129003671872,-0.021316295489668846,0.0014253971228075498,0.9985864496976788,0.0026566429404835086,right,-0.0024622082710266113,-0.10625003151695518,-0.03634418286122382,-9.751279994955658,-0.053097419676857605,0.024106407538056374,-0.001932802377268672,1.039998662591353,-0.00482514500617981
1746575963119777800,4.92477783203125,-0.00458551953940678,0.02925504371523857,-0.0023841543056350514,-0.017815077677369118,0.0019127456570036288,0.9986052560715605,0.0035887745782007163,right,-0.0010390281677246094,-0.10547568149863776,-0.044719299261621194,-9.752048056718706,-0.0527090647002529,0.012958847917616367,-0.003573486115783453,1.0324474434942006,-0.001402050256729126
1746575963159777800,4.96477783203125,-0.0052006063730764465,0.02434791810810566,-0.0027192400695089966,-0.011118686757981777,0.0024634302064501182,0.9986094005842532,0.004659792566682653,right,0.0015028715133666992,-0.10524361898206958,-0.05071889130286872,-9.752257900077105,-0.052591156063837435,-0.0029725274071097374,-0.00315757654607296,1.0301842478025705,0.0019246935844421387
1746575963199777800,5.00477783203125,-0.005274954278252432,0.009102066978812218,-0.002775363257970588,0.00836972612887621,0.0028124098247252066,0.9985924412296071,0.005353301600591408,right,0.003244459629058838,-0.10584734324946993,-0.05144065710562281,-9.75163012356758,-0.05289154633225505,-0.024751294404268265,-0.002069234848022461,1.0360718445364385,0.005519352853298187
1746575963239777800,5.04477783203125,-0.004667116387268672,0.0041954792104661465,-0.0024792387589647937,0.022938188165426254,0.0029010831544853863,0.9985547587731707,0.005559959200341535,right,0.0012403130531311035,-0.10728150604043504,-0.045506257521384395,-9.750163558146356,-0.053608201742893206,-0.039085984230041504,-0.00203719362616539,1.0500563846167177,0.0034933462738990784
1746575963279777800,5.08477783203125,-0.0035797431454771653,0.009532338008284569,-0.0019450741521671116,0.031764253973960876,0.0029923463212170494,0.9985103761146444,0.0057983895444449676,right,0.00043123960494995117,-0.10895802767548755,-0.03489781312794657,-9.748433373352885,-0.05444656791517714,-0.037118639796972275,-0.002024246845394373,1.0664014432832598,0.0026748552918434143
1746575963319777800,5.12477783203125,-0.0024248342302632046,0.024793554097414017,-0.0013900099299685481,0.022899853065609932,0.0033197661770598837,0.9984758580247987,0.006515885775727687,right,-0.005530178546905518,-0.11021143646466829,-0.023635980576404834,-9.747122875276208,-0.055073553879818535,-0.01906215399503708,-0.004519544076174498,1.0786194851476698,-0.0008772388100624084
1746575963359778000,5.164778076171875,-0.0020393162400446107,0.04265648126602173,-0.0012341871881002015,0.003070620819926262,0.003967714637429309,0.9984691376056356,0.007834892873810688,right,-0.00415647029876709,-0.11037803685614432,-0.019877918100962413,-9.74695161036253,-0.05515656271625877,0.017400432378053665,-0.002566519659012556,1.0802433600224555,-0.0030541718006134033
1746575963399777800,5.20477783203125,-0.0022456930219019837,0.03329257294535637,-0.0013763259768947956,-0.005655495449900627,0.004721801262564553,0.9984926871242015,0.00933483079682416,right,-0.0011534690856933594,-0.10939660685717349,-0.021891831189661752,-9.748002580720186,-0.0546651660687219,0.028259262442588806,0.0036963028833270073,1.070676855580136,0.0054435133934021
1746575963439777800,5.24477783203125,-0.0024921243671497586,0.0026819463819265366,-0.0015144245166270449,-0.004205793607980013,0.00504654836225895,0.9985170957008844,0.009972752946273221,right,-0.0019574761390686035,-0.10843252212686805,-0.024296604476182253,-9.749024909505248,-0.05418278648188158,0.018398601561784744,0.004249189049005508,1.0612784011811018,0.007420375943183899
1746575963479777800,5.28477783203125,-0.002737198919530948,-0.013492582365870476,-0.0016252105613098625,-0.00682398397475481,0.004874110362645545,0.9985392145000743,0.00961494646698042,right,0.0000820159912109375,-0.10763864578822037,-0.02668813925521681,-9.749857853198051,-0.05378610577715043,0.02605546824634075,0.002035781741142273,1.053538527644053,0.0022607147693634033
1746575963519777800,5.32477783203125,-0.0028784611318194908,-0.011178707703948021,-0.001682127697264831,-0.0016474677249789238,0.0046648481327808055,0.998565885249669,0.009189346535086075,right,0.0024657249450683594,-0.1066787656074136,-0.028068325584218835,-9.750860892760754,-0.05330687143501627,0.027795853093266487,0.0010012644343078136,1.0441793092768639,0.0020240768790245056
1746575963559777800,5.36477783203125,-0.002551842311048045,-0.005882895085960627,-0.001511287810176573,0.01182769425213337,0.004548661248824374,0.9985913486561374,0.008975040391855656,right,0.0012028813362121582,-0.10574863482460774,-0.02488597607092233,-9.75183645979464,-0.05284338915225706,0.020930450409650803,0.002431526780128479,1.0351092831145972,0.0049073100090026855
1746575963599777800,5.40477783203125,-0.0017629648779454046,-0.01529376208782196,-0.0011094543578098475,0.014721658080816269,0.004398524567014788,0.9986061357199544,0.008716428220199758,right,-0.0003981590270996094,-0.10522975844181735,-0.01719391003124183,-9.752388832980394,-0.052586247691108694,0.013949691317975521,0.0011726630618795753,1.0300490771155804,0.0029118433594703674
1746575963639777800,5.44477783203125,-0.0009698838797300405,-0.013839189894497395,-0.0006968940720768587,0.01363704539835453,0.004100103304205392,0.9986329426167982,0.008160779000782131,right,-0.004741966724395752,-0.10426056414879,-0.00946043541058316,-9.753393041586875,-0.05210426057080803,0.03411763161420822,0.0003198987105861306,1.0205966275069862,0.001308150589466095
1746575963679777800,5.48477783203125,-0.0007924812043126464,-0.017251525074243546,-0.0005886620433237637,-0.007003124803304672,0.003768159026849101,0.9986701224469132,0.007505517598376146,right,-0.007224738597869873,-0.10287570039700296,-0.0077312706763070305,-9.754798816731572,-0.05141332214219029,0.03820498660206795,0.0006604419322684407,1.0070885458320378,-0.0008910447359085083
1746575963719777800,5.52477783203125,-0.0013643367831919395,-0.0005965176969766617,-0.0008604453748495374,-0.023108672350645065,0.003580622424110308,0.9987196778813198,0.007101469384838776,right,-0.004994451999664307,-0.1009518638722889,-0.013312224601063644,-9.756711956876515,-0.05045175346325162,0.06299467384815216,0.00029449909925460815,0.9883200594108551,-0.007752567529678345
1746575963759777800,5.56477783203125,-0.0026271114445042,0.015614349395036697,-0.0014937107810552934,-0.038202591240406036,0.0037576919628784,0.9987832704568239,0.007395213848029005,right,-0.003470897674560547,-0.0983479652249338,-0.02563941337028518,-9.759227739089727,-0.04914893789904412,0.0665675699710846,0.003434072947129607,0.9629111851271241,-0.006241612136363983
1746575963799777800,5.60477783203125,-0.0042930710324809735,0.016969438642263412,-0.002339879915129415,-0.04578138142824173,0.004176071742641165,0.9988349866162171,0.00815541254661694,right,-0.0015576481819152832,-0.09609191113619896,-0.041907068552216514,-9.761319158411025,-0.048018220094017745,0.03631667047739029,0.006607891991734505,0.940891368759796,0.001687958836555481
1746575963839777800,5.64477783203125,-0.005878375011285777,0.0017780754715204239,-0.0031398836520501773,-0.0378991961479187,0.004416549317297046,0.9988492992358651,0.008562705909869735,right,0.00047975778579711914,-0.09536553301940277,-0.05738566941542085,-9.761921215957402,-0.047651488694017266,-0.0027737990021705627,0.007491027470678091,0.9338006067812442,0.0042734816670417786
1746575963879777800,5.68477783203125,-0.00714154196339273,-0.01527492143213749,-0.0037654784332641095,-0.03279046341776848,0.004306458925239529,0.9988297335389228,0.008279482440391943,right,-0.0011703968048095703,-0.09611532073855546,-0.06971153730216902,-9.761137956625223,-0.048023685151752316,-0.030972056090831757,0.005152810364961624,0.9411198437534272,0.003968529403209686
1746575963919777800,5.72477783203125,-0.0084133683744649,-0.018391497433185577,-0.004384054760528619,-0.03614403307437897,0.003934964451672365,0.9987890065821191,0.007467861516183399,right,-0.0008174777030944824,-0.09775797950351252,-0.08211283134557307,-9.75948259063363,-0.048843071472975744,-0.04225099831819534,0.002543197013437748,0.957153206122294,0.00039780884981155396
1746575963959777800,5.76477783203125,-0.009680901811705103,0.0003345441073179245,-0.005008783569818801,-0.03396014869213104,0.0037394570845975276,0.9987413721139531,0.007005752444488265,right,0.00047600269317626953,-0.09960832327816146,-0.09446593429911881,-9.757582894492149,-0.04976575094538761,-0.04531317204236984,0.0006561083719134331,0.975210621664673,0.0009626373648643494
1746575963999777800,5.80477783203125,-0.010773879497017505,0.015820099040865898,-0.005565538141879369,-0.02800312638282776,0.003923991422345204,0.998687699255621,0.00731044120117851,right,0.0021601319313049316,-0.10160449993107748,-0.10510951165473088,-9.75550784178376,-0.05075965859877868,-0.05253645405173302,-0.0020284270867705345,0.9946874024856835,0.0026791617274284363
1746575964039777800,5.84477783203125,-0.0114336012632031,0.019857682287693024,-0.00592187197943669,-0.017774397507309914,0.004404279325364809,0.9986353192511545,0.008228329441290623,right,0.002641439437866211,-0.10349732934876833,-0.11152368041281588,-9.753536249449848,-0.05170080164843096,-0.04982853680849075,-0.003365287557244301,1.013152229785174,0.006899252533912659
1746575964079777800,5.88477783203125,-0.011716239669179389,-0.003413999453186989,-0.006079580136464052,-0.0025492096319794655,0.004677047988104,0.9985940724825643,0.008751509662347931,right,0.0013039708137512207,-0.1050019797835857,-0.11426241206116974,-9.7519691462636,-0.052449875088992376,-0.026884596794843674,-0.001973305828869343,1.0278276747390627,0.005647569894790649
1746575964119777800,5.92477783203125,-0.011620112698890591,-0.022014986723661423,-0.006021749834028756,0.008155064657330513,0.004465170486585662,0.9985781640544785,0.008328556926801251,right,-0.0014121532440185547,-0.10565499484639591,-0.11331715796715579,-9.751306882962584,-0.05277741959445097,-0.012351922690868378,-0.0028162486851215363,1.0341961137924343,0.006726644933223724
1746575964159777800,5.96477783203125,-0.011304987104335727,-0.015127583406865597,-0.005839618425905521,0.01537306234240532,0.003974723354547644,0.9985692723323777,0.007360483669064548,right,0.0007184743881225586,-0.10610193606735414,-0.11023902916344813,-9.750879012939333,-0.05300410967796474,-0.007756655570119619,-0.002908250316977501,1.038554528197646,0.002348862588405609
1746575964199777800,6.00477783203125,-0.01081039219693511,0.0017251120880246162,-0.005586673212227714,0.003923984244465828,0.0038300170223105885,0.9985536092045841,0.007093462634444771,right,-0.003951907157897949,-0.106762830148214,-0.10540884166117757,-9.750243637645244,-0.053335810644535096,-0.0189251359552145,-0.007585257291793823,1.044999028161913,0.000587165355682373
1746575964239777800,6.04477783203125,-0.01091046247025281,0.012744507752358913,-0.005645473611583992,-0.003863203339278698,0.003974761436675576,0.9985312498434511,0.007373801623206794,right,-0.0014991164207458496,-0.10756628523478425,-0.10637535773892887,-9.749390235686302,-0.05373597154934858,-0.012587672099471092,-0.005131760612130165,1.0528330097232013,-0.0007412508130073547
1746575964279777800,6.08477783203125,-0.010791874355444177,0.0007669907063245773,-0.005596030757958441,0.01373440120369196,0.00414287892739471,0.9985219843771151,0.007715188426406645,right,0.002095341682434082,-0.10789878596809371,-0.10521541058146394,-9.749052382034062,-0.05390125598696832,-0.011744880117475986,-0.003695104271173477,1.0560748411886394,0.005111083388328552
1746575964319777800,6.12477783203125,-0.010107600154117262,-0.01709197275340557,-0.005241260648776663,0.03165270388126373,0.0038726264224604153,0.9985168263006248,0.007209379701247345,right,0.0017368197441101074,-0.10819579739619349,-0.09854118438139557,-9.748808051884174,-0.054052283960422415,0.0004318980500102043,-0.0032778074964880943,1.0589705626301467,0.0002829432487487793
1746575964359778000,6.164778076171875,-0.009045617401651437,-0.01941343955695629,-0.004690100413117839,0.03179376199841499,0.0034618378192955252,0.9985261934441504,0.006444935496312224,right,-0.002124309539794922,-0.10799756287532648,-0.08818995930217206,-9.749116679441928,-0.05395715979110621,0.012206158600747585,-0.0036745797842741013,1.057037841001898,-0.0034286603331565857
1746575964399777800,6.20477783203125,-0.00805184665328118,-0.006769096478819847,-0.004175930611759904,0.033739782869815826,0.0031203676180453915,0.9985513743064047,0.005817849412026539,right,-0.0001138448715209961,-0.10718099731145626,-0.07850845931121148,-9.750059513249992,-0.05355249880924213,0.03190525248646736,-0.00027777906507253647,1.049076433668658,-0.006813526153564453
1746575964439777800,6.24477783203125,-0.0067233944967279,0.003679017536342144,-0.003511368091927396,0.04094916209578514,0.003093342218070468,0.9985904081525931,0.005839356726023318,right,-0.0000623464584350586,-0.1058118985992584,-0.06556550070573576,-9.751582192772627,-0.05287094524796743,0.026257630437612534,0.0009881313890218735,1.035726172903925,-0.0021435022354125977
1746575964479777800,6.28477783203125,-0.0052634685126186544,-0.002382842358201742,-0.0027826907508944074,0.04046355560421944,0.003080760890020074,0.998614693299029,0.005893531446485361,right,-0.0013655424118041992,-0.1049740792383425,-0.05133339733886532,-9.752532040843366,-0.05245478855974896,0.009584605693817139,0.00041732611134648323,1.0275555797994136,0.000514589250087738
1746575964519777800,6.32477783203125,-0.003748318294314193,-0.013321207836270332,-0.0020178496226845814,0.04253358021378517,0.0028876663164141714,0.9986222303890848,0.005586740391219601,right,-0.0010004639625549316,-0.10477492068736684,-0.03655755846713436,-9.752802674478293,-0.05235797358527195,-0.0032115513458848,0.0016303928568959236,1.0256132135599851,0.001292996108531952
1746575964559777800,6.36477783203125,-0.002281571675020176,-0.018192056566476822,-0.0012690432130863607,0.038546204566955566,0.002527006213787442,0.9986141825646205,0.004940939535457237,right,-0.0012707710266113281,-0.10516042577019936,-0.022251729993638582,-9.75245020777881,-0.05255297680888459,-0.012607293203473091,0.0028217618819326162,1.0293729314196853,0.001431100070476532
1746575964599777800,6.40477783203125,-0.00101781642750084,-0.011977157555520535,-0.0006212822127702672,0.0283157080411911,0.002163993556034888,0.9986004788450685,0.004280187942332317,right,-0.001284480094909668,-0.10573276080462347,-0.00992640438794042,-9.751879714414477,-0.0528405399010473,-0.009618377313017845,0.003425399772822857,1.0349544578790664,-0.0003040432929992676
1746575964639777800,6.44477783203125,-0.00009460603510317023,-0.0012171920388936996,-0.00015495774271890572,0.011023800820112228,0.0020328174902700755,0.998593348991397,0.004066336480507432,right,-0.0034383535385131836,-0.10601363601864934,-0.0009233378053781052,-9.75159329868853,-0.05298179604386549,0.00024355389177799225,0.0015094078844413161,1.0376934543889016,-0.0006539523601531982
1746575964679777800,6.48477783203125,0.0001258558531014226,0.007712453603744507,-0.000050136059197284514,-0.00510447658598423,0.0021327357146395582,0.9986019660983165,0.004278092976233875,right,-0.004734694957733154,-0.10568137356101187,0.0012265605335305735,-9.751937582081556,-0.05281611448460142,0.01359584741294384,0.0016941565554589033,1.0344533034238963,0.00006379932165145874
1746575964719777800,6.52477783203125,-0.00034834300916386046,0.004976598080247641,-0.00029884197247427054,-0.02470344305038452,0.0023818801819287284,0.9986142646833546,0.004752023204529941,right,-0.002782762050628662,-0.10519270241044686,-0.003397972446042695,-9.752441439950466,-0.05257154243510276,0.006189214531332254,0.0016111790901049972,1.0296876964572816,0.0022628754377365112
1746575964759777800,6.56477783203125,-0.001252957141828363,-0.0007994519546627998,-0.000753061147691729,-0.02211853116750717,0.0024633649988955518,0.9986249490581105,0.004867806475240092,right,-0.0010275840759277344,-0.10477192780230514,-0.012220708745531737,-9.752866971886158,-0.052360318040465016,0.001911307219415903,0.0005840393714606762,1.025584060530737,0.0032722726464271545
1746575964799777800,6.60477783203125,-0.002157579929275968,-0.00657550198957324,-0.0012072790648118329,-0.019533619284629822,0.0025448319433285333,0.9986353326059827,0.004983932590899155,right,0.0007265806198120117,-0.10435124994415595,-0.021044297282502518,-9.753282566949725,-0.052149078681514104,-0.002366601023823023,-0.00044301385059952736,1.0214811552565544,0.004281595349311829
1746575964839777800,6.64477783203125,-0.002755649596318314,0.00011077849194407463,-0.0015049287636220462,-0.008716879412531853,0.0025457706567993178,0.998639703312082,0.004954807651973045,right,0.0011485815048217773,-0.1041701246271907,-0.026877944472583473,-9.753452662819623,-0.052057896955000404,0.002317802980542183,-0.0012736099306493998,1.0197145839754491,0.0011965930461883545
1746575964879777800,6.68477783203125,-0.0030024757199770447,0.0026517927180975676,-0.0016309776793013075,-0.004882191773504019,0.002605713303768006,0.9986390391413019,0.00506197341926742,right,-0.0013843178749084473,-0.10418180106129929,-0.029285313858278095,-9.753433958119153,-0.05206332682911694,-0.004973089322447777,-0.0015195196028798819,1.0198284196134657,0.0027037933468818665
1746575964919777800,6.72477783203125,-0.003174496246377957,0.005282905884087086,-0.0017226132955908185,-0.0031547562684863806,0.0027091107244544307,0.9986262081248474,0.005259394035511604,right,-0.001422107219696045,-0.1046561200584175,-0.030961565090983637,-9.752944128775596,-0.05229977054686534,-0.015773000195622444,-0.0009242251981049776,1.0244545450441538,0.00176934152841568
1746575964959777800,6.76477783203125,-0.0031315552728277225,0.008625881746411324,-0.00171049967864736,0.0024239530321210623,0.0028676581544009715,0.9986065369600833,0.005578131957961007,right,-0.0018126368522644043,-0.1053904411702493,-0.030540401086444034,-9.75219068005979,-0.05266620912270983,-0.015450743027031422,-0.0021742070093750954,1.031616107236594,0.00026494264602661133
1746575964999777800,6.80477783203125,-0.0031968404411533155,0.005550582893192768,-0.0017439389369679299,0.007809903472661972,0.0028768716641526053,0.9985975234143029,0.00559264896489951,right,-0.0010467767715454102,-0.10573011123538793,-0.03117595219375798,-9.75183762883842,-0.052835699254364536,0.002978953532874584,-0.0008583376184105873,1.0349285927854477,-0.0013345330953598022
1746575965039777800,6.84477783203125,-0.003204656715333181,-0.0012400434352457523,-0.0017449149683275214,0.0013297256082296371,0.002820595363634406,0.9985964381818749,0.005479454811331641,right,-0.0017312169075012207,-0.10577823199797202,-0.03125201538794208,-9.751787359955907,-0.052859811787902326,-0.002161267679184675,-0.0013947072438895702,1.0353978907976298,0.0003505200147628784
1746575965079777800,6.88477783203125,-0.0030883567012339828,0.002702753059566021,-0.0016872065971027612,0.005598103627562523,0.002824866721515314,0.9985971196026554,0.005494196963875295,right,-0.001571059226989746,-0.10575600184326248,-0.030117953873693475,-9.751814247962832,-0.05284886300873547,-0.0001252465881407261,-0.0006435117684304714,1.0351811062417924,-0.0002924874424934387
1746575965119777800,6.92477783203125,-0.002972055477813373,0.006645549554377794,-0.001629497314673836,0.009866481646895409,0.002829138079396282,0.9985978010234358,0.0055089366165219,right,-0.0014110207557678223,-0.1057337711009902,-0.028983874093135818,-9.751840551447868,-0.0528379144221009,0.0019107747357338667,0.00010768324136734009,1.0349643216859548,-0.0009354948997497559
1746575965159777800,6.96477783203125,-0.0025960763725062642,0.0029015911277383566,-0.0014454191947027711,0.012472638860344887,0.0028881688367578895,0.9985979387273134,0.005647058975756117,right,-0.0027663707733154297,-0.10573290356100432,-0.025317385191551873,-9.751851657363773,-0.05283791125232321,-0.007130786776542664,0.0011886447900906205,1.0349558461185544,0.0014479681849479675
1746575965199777800,7.00477783203125,-0.0022352013648819064,-0.005049707368016243,-0.0012640885058149694,0.006042736582458019,0.002844946327928132,0.9985856882618964,0.005579126058014793,right,-0.0028421878814697266,-0.1062086697166968,-0.021797081561316736,-9.751366504195332,-0.053076022289793974,-0.01800139993429184,0.002325634239241481,1.0395953424874693,0.0022303983569145203
1746575965239777800,7.04477783203125,-0.0020789125530307462,-0.005209093447774649,-0.0011807664923991687,-0.0021559344604611397,0.0027197120445114956,0.9985621337323132,0.005335805204825569,right,-0.004106402397155762,-0.1071049043513414,-0.0202711072531878,-9.750434191781283,-0.053523872238258434,-0.024828070774674416,0.0012740847887471318,1.0483344561949373,0.001330457627773285
1746575965279777800,7.08477783203125,-0.002213102757822114,0.006177676375955343,-0.0012501112006231532,-0.00977504625916481,0.002744307579550516,0.9985364675296515,0.005376962198794981,right,-0.003277599811553955,-0.10805312342633695,-0.021577310463949104,-9.749432905784248,-0.05399708788649492,-0.019881339743733406,0.001044567790813744,1.057579546663165,0.0006628558039665222
1746575965319777800,7.12477783203125,-0.0026789320864386333,0.01777171716094017,-0.0014969931882045059,-0.019745197147130966,0.0030041847433100568,0.9985173174035225,0.0058714986253333625,right,-0.0029227137565612793,-0.10872237605385718,-0.026116976887313646,-9.748712190294265,-0.054330211952470384,-0.00940208975225687,0.0013076025061309338,1.0641041991915554,-0.00037401914596557617
1746575965359778000,7.164778076171875,-0.003424715096620128,0.022300245240330696,-0.0018914249820762888,-0.025748157873749733,0.0034285244847664675,0.9985135549428285,0.006680756935475138,right,-0.003424525260925293,-0.1087904100415707,-0.03338714370351517,-9.748617497748135,-0.05436229251734986,0.002215425483882427,0.0009454644750803709,1.064767412340641,0.0032403171062469482
1746575965399777800,7.20477783203125,-0.004523219629849502,0.015508918091654778,-0.0024585931815434845,-0.030514415353536606,0.0038019131202623197,0.99851062810012,0.007368805472425779,right,-0.0012784600257873535,-0.10880810091319786,-0.04409593406573403,-9.748556122949719,-0.054368391284243985,0.006225846707820892,-0.00020055659115314484,1.0649398462980986,0.0009721368551254272
1746575965439777800,7.24477783203125,-0.005661309438034878,0.006326025351881981,-0.003032116555860136,-0.020904798060655594,0.003934936309533655,0.9985123721815197,0.00757363154085813,right,0.0003096461296081543,-0.10867515215749002,-0.055191438173619094,-9.748640878623723,-0.05429952844744446,0.006547477096319199,0.0012404434382915497,1.0636438151381908,0.001938655972480774
1746575965479777800,7.28477783203125,-0.0064809777593209245,0.00015182560309767723,-0.0034416715809681953,-0.01628866046667099,0.003955567914413129,0.9985044185409491,0.007569643322529002,right,0.0004552006721496582,-0.10891888693184865,-0.06318039110091049,-9.748332835587858,-0.054419604167875356,-0.009853338822722435,0.0016090339049696922,1.066019896619767,0.0026738718152046204
1746575965519777800,7.32477783203125,-0.007017499046359323,-0.0005453964695334435,-0.003707722758038031,-0.012395651079714298,0.003915601519443792,0.9984846569838738,0.007458051418496451,right,-0.0002097487449645996,-0.10961433171945859,-0.06840535007442813,-9.747553667908907,-0.05476594890494546,-0.01560862548649311,-0.0008927229791879654,1.0727991814963518,-0.0001582130789756775
1746575965559777800,7.36477783203125,-0.007608709339013948,0.0057987309992313385,-0.004005154485445479,-0.02096555382013321,0.003956462276694615,0.9984682864406051,0.00750548535111769,right,-0.0013539791107177734,-0.11016597951322328,-0.07416367613913025,-9.746918292614817,-0.0550400972574303,-0.009173158556222916,-0.0027367733418941498,1.0781764175552875,-0.0007241219282150269
1746575965599777800,7.40477783203125,-0.008321789693914805,0.010953718796372414,-0.00436999834702969,-0.010992676019668579,0.004125671486835248,0.9984564753274284,0.007803732951056367,right,-0.0001811385154724121,-0.1105163401841473,-0.08111084209564141,-9.74648457737267,-0.05521294619470996,-0.007240334991365671,-0.0019066445529460907,1.0815913405653088,0.0017171278595924377
1746575965639777800,7.44477783203125,-0.00862606995600192,-0.003426782786846161,-0.004530869593359435,-0.009358146227896214,0.0042850489175394494,0.9984457059568632,0.008104745327744271,right,0.00022780895233154297,-0.11086126455807502,-0.08407328123096376,-9.746085933443903,-0.05538382734273156,-0.007200987543910742,-0.0025033988058567047,1.0849532182138413,0.0031736865639686584
1746575965679777800,7.48477783203125,-0.008565884679089936,-0.014574123546481133,-0.004496832084347084,0.00284563098102808,0.0042105470184139095,0.9984453647356863,0.007958735771983675,right,-0.0019091367721557617,-0.11088886197749706,-0.08348645778633654,-9.746061383524536,-0.05539806322826235,-0.0017477809451520443,-0.0019216937944293022,1.0852221713483332,0.006325967609882355
1746575965719777800,7.52477783203125,-0.008390011703098452,-0.017128804698586464,-0.004393126192080553,0.009581387042999268,0.003920370480883269,0.9984481935705244,0.007387425075251037,right,0.000024437904357910156,-0.11084187470072726,-0.08177281313571147,-9.746126849976182,-0.0553762346787644,0.0007016246672719717,-0.0017777765169739723,1.0847641984477638,0.0047759488224983215
1746575965759777800,7.56477783203125,-0.008016040235748312,-0.008485827594995499,-0.004190160883593264,0.012443078681826591,0.0036257466374185546,0.9984594553235288,0.006819297045537597,right,0.00003904104232788086,-0.11050330414676081,-0.07813097690148278,-9.746523155817389,-0.05520913424492246,0.02038726955652237,-0.0023405607789754868,1.0814642801195382,0.0010385364294052124
1746575965799777800,7.60477783203125,-0.0076064696060217955,-0.004981013014912605,-0.0039764816850293766,0.008687838912010193,0.003474723854457194,0.9984892942420568,0.006543195194652303,right,0.00035494565963745117,-0.10946482417366617,-0.07414757895427755,-9.747672325852513,-0.05469197824344232,0.033919841051101685,0.0002740994095802307,1.0713418222948907,0.0023405030369758606
1746575965839777800,7.64477783203125,-0.007265545864597183,-0.008190340362489223,-0.0037958824879522394,0.010108951479196548,0.0033076138428131813,0.9985254564850259,0.006231598191623789,right,-0.0008556246757507324,-0.10817860836914629,-0.07083431708728895,-9.749066995081305,-0.05405101347141962,0.030930733308196068,0.0016400879248976707,1.058802950978279,0.003405161201953888
1746575965879777800,7.68477783203125,-0.006945563283492006,-0.008419899269938469,-0.003623269546769019,0.008396771736443043,0.0030869816827115313,0.9985560526422801,0.005810620725024774,right,-0.0007401704788208008,-0.10708791192671235,-0.06772276093801483,-9.750237792426347,-0.053507753290344504,0.02680419199168682,0.0013490472920238972,1.048168744239211,0.0010992884635925293
1746575965919777800,7.72477783203125,-0.006815744087129369,-0.0029361052438616753,-0.003548023144442392,0.0002805488184094429,0.002905949253757,0.9985774287241358,0.00545751183969692,right,-0.0028645992279052734,-0.10631450720509465,-0.06646249977780971,-9.751054369506239,-0.053122432842797565,0.020634528249502182,-0.000046613626182079315,1.0406273889489472,0.00002771615982055664
1746575965959777800,7.76477783203125,-0.006899208410006919,0.006057824939489365,-0.0035914079085811843,-0.003299158066511154,0.0029526488871414224,0.9985915031540493,0.005548396114135559,right,-0.001888871192932129,-0.10577179524613939,-0.06728025046805851,-9.751612003389,-0.05285117763534003,0.011991335079073906,0.00033995043486356735,1.0353351277597247,-0.000825732946395874
1746575965999777800,7.80477783203125,-0.007017221612748681,0.007664002012461424,-0.0036590756010829724,-0.004717086907476187,0.003129389363538775,0.9985999102883533,0.005897284723262686,right,-0.0023224353790283203,-0.10542747581892103,-0.0684335669553373,-9.751959793913365,-0.052678444256867074,0.008788041770458221,-0.0008427808061242104,1.031977268699184,-0.002728670835494995
1746575966039777800,7.84477783203125,-0.007208361943333884,0.008403733372688293,-0.0037645263213778903,-0.008329417556524277,0.0033345521906929182,0.9986091959734299,0.006299447951991315,right,-0.003529071807861328,-0.105036279164804,-0.0703004613723373,-9.752349670013785,-0.052482063315230885,0.004936429671943188,-0.002130742184817791,1.028162167390436,-0.00005572289228439331
1746575966079777800,7.88477783203125,-0.0074436598656006875,0.0005630124360322952,-0.00388464938617145,-0.004507038742303848,0.0033917011684530315,0.9986093657702414,0.006401643039090974,right,-0.0012334585189819336,-0.1050070767923776,-0.07259539020936935,-9.752363114017248,-0.05246689000513083,0.0010679226834326982,-0.0021205595694482327,1.0278774321649222,-0.0015648230910301208
1746575966119777800,7.92477783203125,-0.0075188650063711514,-0.006317351944744587,-0.003915102535768602,0.00667891651391983,0.0032585182356990624,0.9986096049148517,0.006130944240715188,right,-0.00004178285598754883,-0.10501009241241421,-0.07332879621756729,-9.752354346188902,-0.05246879775182574,0.0006103629129938781,-0.0009625367820262909,1.0279068043898791,-0.0001588389277458191
1746575966159777800,7.96477783203125,-0.007132156665462108,-0.013433294370770454,-0.003710741884329751,0.013327986001968384,0.003024650133664059,0.998600840710243,0.0056815484834078014,right,-0.0014758110046386719,-0.10539859392150792,-0.06955462057425174,-9.751982005745171,-0.05266424155845422,-0.016948865726590157,0.0015795393846929073,1.0316956752788276,0.0031153932213783264
1746575966199777800,8.00477783203125,-0.006571489354576995,-0.012556483969092369,-0.0034166591759133653,0.01545805111527443,0.0027235935347429403,0.9985797116654739,0.005105429924616833,right,-0.0010838508605957031,-0.10626545277826716,-0.06408109366714489,-9.751121589523553,-0.05309889412503023,-0.024575473740696907,-0.0003029806539416313,1.0401490308474748,0.003115139901638031
1746575966239777800,8.04477783203125,-0.006266614450565914,-0.010499881580471992,-0.0032509598671532874,0.00006692763417959213,0.0024430008567905355,0.9985532230679921,0.004556529646609402,right,-0.0018110871315002441,-0.10730444165782267,-0.06110141113607678,-9.750054252552985,-0.05361895186690943,-0.018808305263519287,-0.0009931386448442936,1.050280037304759,0.003070823848247528
1746575966279777800,8.08477783203125,-0.006144169856437428,-0.00045288819819688797,-0.003184131576354588,0.001795050804503262,0.0023245971358677284,0.9985394346670887,0.004324385253165492,right,-0.0016940832138061523,-0.10783522426772185,-0.059904136776062655,-9.749503048411011,-0.05388447660213041,-0.007638847455382347,0.00026596663519740105,1.055455101855099,0.004228256642818451
1746575966319777800,8.12477783203125,-0.006123346196987934,-0.002423553029075265,-0.003175967970039482,-0.005733813624829054,0.0023647792235857983,0.9985383767392239,0.004405882874381034,right,-0.0015889406204223633,-0.10787184942713413,-0.059700878422078676,-9.74946563901007,-0.05390265771544934,0.006767275743186474,-0.0000447533093392849,1.0558122447296976,0.0033538788557052612
1746575966359778000,8.164778076171874,-0.006233885170911608,-0.0033486452884972095,-0.003232344625079574,-0.0034702138509601355,0.0024022652372830485,0.9985571393790635,0.004477118918936091,right,-0.0021325349807739258,-0.10716392959241633,-0.060783216598955914,-9.750203890156746,-0.05354896557002608,0.023360636085271835,0.00121399387717247,1.04890999106057,0.0060116201639175415
1746575966399777800,8.20477783203125,-0.006476679678864918,-0.00797746330499649,-0.0033481965130968635,-0.0046663833782076836,0.0023249458463204197,0.9985826755189496,0.004312251736839161,right,-0.0008325576782226562,-0.10619851925558595,-0.06315704219136387,-9.751196992847323,-0.05306693456716175,0.027561962604522705,0.0006538652814924717,1.0394963390924037,0.0032509416341781616
1746575966439777800,8.24477783203125,-0.006578773970566805,-0.0037074428983032703,-0.003394243198231259,-0.0005574780516326427,0.002257186453346767,0.9986184976416231,0.004175432282384776,right,-0.0012210607528686523,-0.1048406118036968,-0.0641618124868488,-9.752592831119895,-0.052389042707511255,0.04074792563915253,-0.00011316314339637756,1.0262539226163179,0.001943439245223999
1746575966479777800,8.28477783203125,-0.006603682795908522,-0.002870566677302122,-0.0034048145375967496,-0.001585938734933734,0.002251009209785975,0.9986633610659339,0.004167282327602037,right,-0.001821756362915039,-0.10310933093414391,-0.0644163717698073,-9.75435341105163,-0.051524568626169574,0.05075797438621521,-0.0005701053887605667,1.0093675236146897,0.0018428564071655273
1746575966519777800,8.32477783203125,-0.006625801297584829,-0.004482653923332691,-0.00341068069765639,0.0015681481454521418,0.00218569138601968,0.9987173699122496,0.004042111664207463,right,-0.0016338229179382324,-0.10099677149904139,-0.06464610713876318,-9.75646236602962,-0.05046985880453564,0.058244477957487106,-0.00035069743171334267,0.9887582316324114,0.0024806633591651917
1746575966559777800,8.36477783203125,-0.006617436642339065,-0.006892802659422159,-0.0033987154843553775,0.0033108277712017298,0.0020654570913494234,0.998772260261253,0.0038087895784045555,right,-0.0015128850936889648,-0.09880837753840101,-0.06457866335916332,-9.758603469711542,-0.04937744111304079,0.05388345941901207,-0.00048061180859804153,0.9674044048931449,0.0016599446535110474
1746575966599777800,8.40477783203125,-0.006589823950270553,-0.0049507152289152145,-0.003377599716544953,0.000158658716827631,0.0019458758345985724,0.998820798727573,0.003577031428255148,right,-0.0018445253372192383,-0.09683383528475349,-0.06432166552394628,-9.760496151590347,-0.04839177847514891,0.049948111176490784,0.000010278075933456421,0.9481333027120679,0.0001361072063446045
1746575966639777800,8.44477783203125,-0.006636765236401888,0.00006133830174803734,-0.0033976308851879637,0.0006295350613072515,0.0019037783470924167,0.9988649057640865,0.0034964195969989314,right,-0.0014847517013549805,-0.094992175387559,-0.06479131516257766,-9.762222829252481,-0.047472106629105344,0.045149561017751694,-0.0007705427706241608,0.9301558205381035,-0.001302957534790039
1746575966679777800,8.48477783203125,-0.006682274764413178,0.002784083131700754,-0.0034197607544334753,0.00012969592353329062,0.0019180044544112298,0.9989044833469808,0.0035282404881473066,right,-0.0026428699493408203,-0.09330427094996284,-0.06524598642778583,-9.763775903913379,-0.046628998846869225,0.0396248959004879,-0.0014386014081537724,0.9136764679674059,-0.0025487691164016724
1746575966719777800,8.52477783203125,-0.006737093546499678,0.0010982622625306249,-0.0034486607445069466,-0.0007248952169902623,0.001973668137156452,0.9989356100189581,0.0036415592460522055,right,-0.002256453037261963,-0.0919560947162444,-0.06578946392103098,-9.764995216575265,-0.04595538488087091,0.025587785989046097,-0.002971950452774763,0.9005120120983571,-0.0015996694564819336
1746575966759777800,8.56477783203125,-0.006680297237656251,-0.006108610425144434,-0.0034193053242730716,0.006496600341051817,0.0019645856820472737,0.9989548305265645,0.00362870419070722,right,-0.001654982566833496,-0.09112216310143742,-0.06523983981478959,-9.765746911725401,-0.04553893527743977,0.014309823513031006,-0.003349035046994686,0.8923681608702987,-0.001636698842048645
1746575966799777800,8.60477783203125,-0.006156801981204452,-0.009245245717465878,-0.003150450111288211,0.018863877281546593,0.001796081340696052,0.9989639949608505,0.0033162644850709315,right,-0.001468360424041748,-0.09077026101419265,-0.06012944256507326,-9.766092948684095,-0.04536417205709297,0.0017822347581386566,-0.0017732749693095684,0.8889314644198865,-0.0008883103728294373
1746575966839777800,8.64477783203125,-0.005312631254717732,-0.005085942801088095,-0.0027217856947311333,0.022752758115530014,0.0016206468348201521,0.9989625614225557,0.003003034242605613,right,-0.0013685822486877441,-0.09089885121608729,-0.0518845603816444,-9.766025728666781,-0.04542958239534064,-0.01333680097013712,-0.0002743164077401161,0.890187309699878,-0.001170821487903595
1746575966879777800,8.68477783203125,-0.004189453151115014,-0.0011571082286536694,-0.0021579121193698236,0.027483299374580383,0.0015218024172262634,0.9989467724678082,0.0028546845488717798,right,-0.001827836036682129,-0.09165502569860275,-0.040912714619468896,-9.765402043810486,-0.04580833904783813,-0.031178239732980728,-0.0008438890799880028,0.8975720131237059,-0.0003384798765182495
1746575966919777800,8.72477783203125,-0.0029996291418551684,0.0010697946418076754,-0.0015648612044688274,0.02970523200929165,0.0015003899073045856,0.99891340419898,0.0028642362330591037,right,-0.0020026564598083496,-0.09314779880779762,-0.029289526525803373,-9.764092714777588,-0.04655481714669384,-0.047407425940036774,-0.0004766820929944515,0.9121486008130013,0.00021526217460632324
1746575966959777800,8.76477783203125,-0.0015192571334421768,-0.0016401181928813457,-0.0008271400082763158,0.04632830247282982,0.0014718325775764172,0.9988666200446578,0.002874651720300471,right,6.556510925292969e-7,-0.0951741502168121,-0.014832169885560869,-9.762257316043973,-0.04756796123720261,-0.0630829781293869,0.0010334252147004008,0.9319323286913335,0.003566160798072815
1746575966999777800,8.80477783203125,0.00017502802467444042,-0.009220024570822716,0.000023636684971891824,0.04408228397369385,0.0013035203359138287,0.998812325563763,0.002618674614837033,right,-0.0013476014137268066,-0.09745181809532627,0.0017075148768824874,-9.760120304015278,-0.04870670034433504,-0.05143909901380539,0.00019532733131200075,0.95416505715698,0.0016131475567817688
1746575967039777800,8.84477783203125,0.0015261285279187025,-0.014708123169839382,0.000710244293354195,0.028943415731191635,0.0010072887756786596,0.9987693421715667,0.00209281792172374,right,-0.004174709320068359,-0.09920086212131105,0.014891842492303112,-9.758425190535187,-0.049580852152776946,-0.03544444590806961,0.0001497534103691578,0.9712344845753162,0.003336608409881592
1746575967079777800,8.88477783203125,0.0022033592363544926,-0.007951234467327595,0.0010615555177457422,0.011000499129295349,0.0007173117596721883,0.9987439226159652,0.0015469268581601303,right,-0.001953721046447754,-0.10021689476414977,0.021498358909646048,-9.757420981928705,-0.050088288978569144,-0.012992655858397484,-0.0001253469381481409,0.9811489256724715,0.0015730783343315125
1746575967119777800,8.92477783203125,0.0023317880624708553,0.0038444455713033676,0.0011276346366963582,-0.0029117614030838013,0.0006759822426408495,0.9987458931128214,0.0014705089947834357,right,-0.0007163286209106445,-0.10013726658153695,0.022751674305833875,-9.757496385252475,-0.05004852672617385,0.016423458233475685,0.001104019582271576,0.9803719499506056,0.001071430742740631
1746575967159777800,8.96477783203125,0.0022132342901603225,0.004238051827996969,0.0010633703173205152,-0.003180751344189048,0.0007879361119165915,0.9987667099412203,0.0016877958512155607,right,0.0005075335502624512,-0.09930060524925229,0.021596693301142656,-9.758315884941815,-0.049630792829522735,0.0247553251683712,0.0019637502264231443,0.9722078596521169,0.0030726268887519836
1746575967199777800,9.00477783203125,0.002281842952648033,0.0019836139399558306,0.0010984123409318429,-0.0008434448391199112,0.0007763202368748904,0.9987816530221746,0.0016672277719205534,right,0.000025212764739990234,-0.09869419717846663,0.0222675394841237,-9.758902160397172,-0.049327977640004995,0.016226770356297493,0.001084561925381422,0.9662900869756936,0.0021007582545280457
1746575967239777800,9.04477783203125,0.0023504584502515758,-0.0002708237152546644,0.0011334526832114577,0.0014938616659492254,0.0007647166838998534,0.9987966544201956,0.0016466440965130502,right,-0.00045752525329589844,-0.09808782161504141,0.022938524947711265,-9.75948492872119,-0.04902516590276777,0.007698215544223785,0.00020535709336400032,0.9603723873645067,0.0011288821697235107
1746575967279777800,9.08477783203125,0.0025652953978221567,0.006815406493842602,0.0012391021511992519,0.004747122526168823,0.000793189552609259,0.9987973395313566,0.001714159544685983,right,-0.0019130706787109375,-0.09805456223321732,0.025035305430716834,-9.759511816728114,-0.04900867877621996,-0.0017903484404087067,-0.0016476967139169574,0.960047758520022,-0.0004597380757331848
1746575967319777800,9.12477783203125,0.0027422862975216267,0.007879854179918766,0.0013154580501706723,0.004192913882434368,0.0010332415098307489,0.9987952935083336,0.0022036217916138576,right,-0.001155257225036621,-0.09812166417566125,0.026762473999906795,-9.759442258623242,-0.049042585939237236,0.00007625308353453875,-0.0013508489355444908,0.9607026422321796,-0.00043514370918273926
1746575967359778000,9.164778076171874,0.0029193112642342213,0.00894430186599493,0.001391814437119645,0.0036387054715305567,0.0012732811449851918,0.9987931891682433,0.00269307458173135,right,-0.0003975033760070801,-0.09818866417049249,0.02848995081306202,-9.759373285040258,-0.049076481782743805,0.0019428548403084278,-0.0010540320072323084,0.9613565030310303,-0.0004104301333427429
1746575967399777800,9.20477783203125,0.003051362439653768,0.00136250676587224,0.001449546260683486,0.0007675136439502239,0.0014380039531408358,0.9987940227465206,0.0030293319309555194,right,0.0003485679626464844,-0.09814190151927103,0.029778823863109573,-9.759414201572536,-0.04905345662813763,-0.004655772820115089,-0.0013470868580043316,0.9609001375656574,-0.001044057309627533
1746575967439777800,9.24477783203125,0.0031422668044212756,-0.008507858961820602,0.0014939433138409296,-0.0000032029347494244576,0.0014543617098690363,0.998791358415588,0.0030667219521582027,right,0.00011235475540161133,-0.09824546898503257,0.03066568513365928,-9.759311910241841,-0.049105272514328405,-0.00999047327786684,0.00010407669469714165,0.961910922043398,-0.00011017918586730957
1746575967479777800,9.28477783203125,0.003392771332401802,-0.008020663633942604,0.0016232326902240258,0.007754437159746885,0.0013503606108453963,0.9987722118436866,0.002872154697914964,right,-0.0023148655891418457,-0.09902101062412157,0.0331078952205833,-9.758554954394697,-0.04949259359697461,-0.03617171198129654,-0.0002852058969438076,0.9694793845362961,0.0021484270691871643
1746575967519777800,9.32477783203125,0.0037592771477900325,0.0012669255957007408,0.0018070676388775547,0.009456747211515903,0.00130530331394521,0.9987414027613276,0.0028024855072958242,right,-0.00122755765914917,-0.10024925856463072,0.03667995415423065,-9.757344409561156,-0.05010613564182795,-0.026718828827142715,-0.0004947665147483349,0.9814647136233746,0.00006455928087234497
1746575967559777800,9.36477783203125,0.004106663211468716,0.003064535791054368,0.00197528830499054,0.004357472527772188,0.0013874617260526301,0.9987203879364254,0.00298617744127344,right,-0.0010392069816589355,-0.10106664878438566,0.04006621275877114,-9.756525494393706,-0.05051471969999621,-0.0139456856995821,-0.0008689598180353642,0.9894399302862584,0.00312255322933197
1746575967599777800,9.40477783203125,0.004322704210708389,0.00168717245105654,0.0020804264412972954,0.006787762977182865,0.0014288359973377864,0.998709330813163,0.0030809140966353266,right,-0.0010146498680114746,-0.10149299842637632,0.04217219032838475,-9.756093532717227,-0.05072786772467717,-0.00859940703958273,0.0013199830427765846,0.9935996072489768,0.005227126181125641
1746575967639777800,9.44477783203125,0.004656336773986002,-0.001333584194071591,0.0022456578907223117,0.004952817689627409,0.001441729894747991,0.9987009407909493,0.003124442959055467,right,-0.002706289291381836,-0.10180918630641385,0.04542567569899838,-9.755764446893334,-0.05088604170838956,-0.0014041271060705185,-0.00044227344915270805,0.9966843484565615,0.0037617459893226624
1746575967679777800,9.48477783203125,0.004778489736166779,-0.002402755431830883,0.0023133087320277228,0.0056823985651135445,0.00131004563212717,0.9987040920625677,0.0028666550898368997,right,-0.0028804540634155273,-0.10168705242734148,0.04661794965690933,-9.755880766749382,-0.05082484384486074,0.013032209128141403,-0.0006623207591474056,0.9954928005844355,0.00394100695848465
1746575967719777800,9.52477783203125,0.004664568501933747,-0.008374737575650215,0.0022662697371453135,-0.007582234218716621,0.001124500071289557,0.9987132629007108,0.0024884514679726706,right,-0.002375483512878418,-0.10133912200596731,0.045508161784103135,-9.756231479883194,-0.050650601783567055,0.017027296125888824,-0.0004085032269358635,0.992098335840553,0.0017249584197998047
1746575967759777800,9.56477783203125,0.004371328204663261,0.004523059353232384,0.0021248751508079326,-0.005592025350779295,0.0010444339323395515,0.9987356023364711,0.0023112880718225057,right,-0.0007262825965881348,-0.10046885718179181,0.0426509959544288,-9.757104171064496,-0.050215672122962574,0.033782027661800385,-0.0005721915513277054,0.983607351675257,-0.0015460401773452759
1746575967799777800,9.60477783203125,0.004045018379800654,0.009133381769061089,0.0019567473573871876,-0.006956128403544426,0.0011754277146198736,0.9987693320655753,0.0025543971982646342,right,0.00015175342559814453,-0.09912510363330919,0.03947246638301294,-9.758430451232194,-0.049544699598398564,0.03502766415476799,0.0007738517597317696,0.9704952105153352,0.0004057958722114563
1746575967839777800,9.64477783203125,0.0039052299651133856,0.002243642695248127,0.0018826457457857258,-0.00029260944575071335,0.0012832262272873534,0.9987969361912781,0.002761061979492996,right,0.000032782554626464844,-0.09800491253108914,0.03811257392336847,-9.759517077425121,-0.048985397887244334,0.02379687875509262,0.001430537085980177,0.9595631898734718,0.0006580203771591187
1746575967879777800,9.68477783203125,0.003880990136834683,-0.0035922941751778126,0.0018737288787267685,-0.002271385630592704,0.0012291315094369898,0.9988132397296888,0.002650214609341591,right,-0.0017394423484802246,-0.0973373645627368,0.037878482039703516,-9.760155959850549,-0.048651907478044855,0.010596727952361107,0.0008739391341805458,0.9530480358257889,-0.0006802529096603394
1746575967919777800,9.72477783203125,0.0038228540536937995,0.0006275344640016556,0.0018485217860184804,-0.002342193154618144,0.0011557158302174708,0.9988195530221434,0.0024998787682761303,right,-0.0023491382598876953,-0.09708469723739496,0.03731198214718606,-9.76039912095666,-0.04852554726278819,0.004422767553478479,0.00009861099533736706,0.950581864907965,-0.0014067217707633972
1746575967959777800,9.76477783203125,0.0036567924849537797,0.009461050853133202,0.0017612322143285906,-0.005285268649458885,0.0012512046524677026,0.9988223438571179,0.002682798705722437,right,-0.002027451992034912,-0.09697082214481129,0.03569155047165695,-9.760513102725147,-0.048468742495121384,0.003695205319672823,-0.0007876232266426086,0.949470396534726,-0.003385588526725769
1746575967999777800,9.80477783203125,0.0034235176446889577,0.008130432106554508,0.0016338118595794501,-0.008822804316878319,0.0014842689066403266,0.9988254295342978,0.0031379200297980176,right,-0.002580106258392334,-0.09683834136439311,0.03341509800623171,-9.760646958237885,-0.048402807226469134,-0.0038800067268311977,-0.001579436706379056,0.9481772879842668,0.00011317431926727295
1746575968039777800,9.84477783203125,0.003110527001205457,0.002915250603109598,0.0014706899011232536,-0.004712661728262901,0.0016325640518266792,0.9988257134293946,0.0034196761239076254,right,-0.002268373966217041,-0.09682881717246855,0.030360135448980145,-9.760665662938356,-0.04839802406073386,-0.0006172370631247759,-0.00072630331851542,0.9480843490038067,0.00038188695907592773
1746575968079777800,9.88477783203125,0.002925996556515845,-0.0054036290384829044,0.0013815965691550696,-0.0008638773579150438,0.0015698628816658887,0.9988207465676443,0.003285514836151267,right,-0.002718210220336914,-0.09704268325957235,0.028558399239659773,-9.760468094539641,-0.04850458907222633,-0.013228589668869972,-0.0013435687869787216,0.9501718228023499,0.0025078505277633667
1746575968119777800,9.92477783203125,0.002820965456156848,-0.004499782808125019,0.0013363144366392073,-0.003152065211907029,0.0014130308017079442,0.998803990312301,0.0029674184999055513,right,-0.001371920108795166,-0.09774313743612185,0.0275313623134396,-9.759803493151068,-0.04885410656545362,-0.01732860505580902,-0.00028086197562515736,0.9570083908241241,0.00043629109859466553
1746575968159777800,9.96477783203125,0.0026562533984029442,0.003992785699665546,0.001252698268331234,-0.007650571875274181,0.0014331038716542343,0.9987868338338293,0.0030005415288261823,right,-0.0018818974494934082,-0.0984460632660411,0.025922011437639593,-9.759132462021707,-0.0492050507552216,-0.01281642820686102,-0.0006343142595142126,0.9638685589171946,0.001299932599067688
1746575968199777800,10.00477783203125,0.0023302522885541048,0.008909329771995544,0.001080608514159014,-0.0049006701447069645,0.0016187673543911914,0.9987720943145789,0.003357003563080192,right,-0.0019934773445129395,-0.09904240908050714,0.022739177867153192,-9.758564306744933,-0.04950281607622983,-0.01176401972770691,-0.0007117163622751832,0.9696882049813866,0.0014895573258399963
1746575968239777800,10.04477783203125,0.002004447653540014,0.013825872913002968,0.0009085193890332193,-0.0021507684141397476,0.0018044376087278428,0.9987571706025785,0.003713305490578476,right,-0.0021055936813354492,-0.09963886755986479,0.019558629868587012,-9.75799089077115,-0.04980057391508281,-0.0107116112485528,-0.000789350364357233,0.9755086547631769,0.0016791000962257385
1746575968279777800,10.08477783203125,0.0016035640237502637,0.0032710330560803413,0.0007052234451609513,-0.002477117348462343,0.0018682279282781656,0.998746677199857,0.0038214341596334695,right,-0.00036406517028808594,-0.10006060045724473,0.01564614858299028,-9.757585817101598,-0.050010854347570674,-0.0031102215871214867,0.00125186110381037,0.979623834997043,0.0017923787236213684
1746575968319777800,10.12477783203125,0.0013601331887761782,-0.0047287000343203545,0.0005871439375072068,-0.00686240941286087,0.0018017080235717344,0.9987428827380487,0.0036761612024616575,right,-0.001986563205718994,-0.10022022381689927,0.013270637923572212,-9.7574326723665,-0.0500902961575382,0.001440119929611683,-0.00026474217884242535,0.9811813666373491,0.0021697282791137695
1746575968359778000,10.164778076171874,0.0010008445447582998,0.002136822324246168,0.00041248821689508086,-0.006798373535275459,0.0017177359877685752,0.9987459436793336,0.003489920929646067,right,-0.0002358555793762207,-0.10010889805018573,0.009765011272660922,-9.757546069613099,-0.050034339459598336,0.012130074203014374,-0.0004894029698334634,0.9800951057706028,0.0001386776566505432
1746575968399777800,10.20477783203125,0.0006801951984916325,0.009892738424241543,0.00024736884093335814,-0.005995907820761204,0.0018353347353407023,0.9987588055978881,0.0037091240971514,right,-0.0010133981704711914,-0.09958669637849615,0.00663660730739648,-9.758059279832244,-0.04977331702051116,0.017077235504984856,-0.0005317752948030829,0.97499953619726,0.0008145272731781006
1746575968439777800,10.24477783203125,0.0005280904904540426,0.004374256823211908,0.0001640569918827498,-0.001284141093492508,0.001995938402813973,0.9987697694565679,0.004022986000789503,right,-0.0009202957153320312,-0.09913463059206923,0.005152592994450242,-9.758499424815177,-0.04954744883659151,0.005727841518819332,0.002139313844963908,0.9705882225610315,0.0027602240443229675
1746575968479777800,10.28477783203125,0.0005320432371774289,-0.0020605549216270447,0.0001656104121904344,0.000051432522013783455,0.0020040508768783627,0.9987694565119603,0.0040394318418619565,right,-0.001658618450164795,-0.09914753207133317,0.0051911594519042405,-9.758487149855494,-0.04955389578306618,-0.005129678174853325,0.0020978241227567196,0.9707141139630228,0.001021839678287506
1746575968519777800,10.32477783203125,0.0005371918537630963,0.00023475242778658867,0.00016919781902555563,-0.0021928795613348484,0.001976387281505428,0.99876092441137,0.003984419242165457,right,-0.0024097561836242676,-0.0994937760057874,0.005241221125973971,-9.758150465247034,-0.04972680411637086,-0.009086421690881252,0.00039339374052360654,0.9740928696811199,0.0010852143168449402
1746575968559777800,10.36477783203125,0.0004792365178175906,0.00835844874382019,0.00013576892631992745,-0.005969109944999218,0.0020578976373246127,0.9987488800056263,0.004144920361858627,right,-0.0021053552627563477,-0.09997079281770495,0.004675461304384225,-9.757685185822844,-0.049964969238690864,-0.004907967988401651,-0.00046058956650085747,0.9787475636191666,-0.00141105055809021
1746575968599777800,10.40477783203125,0.00026913995086536534,0.008794865570962429,0.000020593909590774267,-0.01150989904999733,0.0022665362228513767,0.9987466483432397,0.004552227846575075,right,-0.002655029296875,-0.10004330422477514,0.002625386346571031,-9.757614458674192,-0.050000967691154134,-0.001597471535205841,-0.001241916324943304,0.9794550543013959,0.0018460676074028015
1746575968639777800,10.44477783203125,-0.00015809023214280834,0.005201907362788916,-0.00020014960243998708,-0.009472252801060677,0.002428340532404612,0.9987497434459128,0.0048548479663019515,right,-0.0014511346817016602,-0.09990332399864818,-0.0015433826714783207,-9.757751821318267,-0.04993055154613585,0.004627062939107418,-0.000982210854999721,0.9780891727756709,0.0018518343567848206
1746575968679777800,10.48477783203125,-0.000374393003510287,-0.005517623852938414,-0.00030611004998708577,0.0006509404629468918,0.0023955167483865744,0.9987529018446312,0.0047783131244290246,right,-0.001607060432434082,-0.09978132642674398,-0.0036540561095738666,-9.757870479261875,-0.049869375286884336,-0.0016549443826079369,-0.00006669131107628345,0.9768987939473242,0.0046337321400642395
1746575968719777800,10.52477783203125,-0.0003666266648891141,-0.0047549535520374775,-0.0002920886913363886,0.0025369813665747643,0.0021867824736353375,0.9987471122132722,0.004360692399554402,right,-0.0009928345680236816,-0.10003052722113256,-0.0035781844262237424,-9.757626733633876,-0.04999389366059073,-0.0016619525849819183,0.00015992423868738115,0.9793304050084203,0.0012105703353881836
1746575968759777800,10.56477783203125,-0.00043744651636630553,0.000010884366929531097,-0.0003282453719329123,-0.002352253533899784,0.002200792299060122,0.9987429945303932,0.004385184450602356,right,-0.0009129047393798828,-0.10019474929801345,-0.004269147523693391,-9.757465990114211,-0.050075818735712166,-0.0034214577171951532,-0.00023230037186294794,0.9809327987037598,0.0014634877443313599
1746575968799777800,10.60477783203125,-0.000508262904422806,0.00477672228589654,-0.00036440128240446823,-0.007241488434374332,0.002214792059618159,0.9987387571328641,0.004409644629757474,right,-0.0008330941200256348,-0.10035895536840059,-0.004960054109769407,-9.757304077550769,-0.05015774016602424,-0.005180962849408388,-0.0006245301337912679,0.982535046268627,0.001716412603855133
1746575968839777800,10.64477783203125,-0.0005983275667452132,0.009564235806465149,-0.0004167058648769712,0.0008025849238038063,0.0023602811121814136,0.9987354913363984,0.004696445961286714,right,0.0005336403846740723,-0.10047604367600273,-0.00583877317305887,-9.75718834221661,-0.050216050466590396,-0.0018055527471005917,0.0005652758409269154,0.9836774943020195,0.001979649066925049
1746575968879777800,10.68477783203125,-0.0007917214697870297,-0.00012186635285615921,-0.0005153782328760233,-0.0005894908681511879,0.0024076040355570953,0.9987361533854299,0.004781496723653977,right,0.0015808939933776855,-0.10044415834300345,-0.007725778796325903,-9.757218737354874,-0.0501998772112664,0.006603121291846037,0.0013154285261407495,0.9833663825262338,-0.00019878894090652466
1746575968919777800,10.72477783203125,-0.0009022835107004884,-0.00696780439466238,-0.0005658977117766482,-0.004434442613273859,0.0023230423573524692,0.998743055065889,0.00460669187837177,right,-0.000845789909362793,-0.10017717863009078,-0.008804793646599864,-9.757480018639564,-0.05006647046899329,0.00685415742918849,-0.00007499585626646876,0.9807613876596093,0.0010852217674255371
1746575968959777800,10.76477783203125,-0.0010656499397492258,-0.0014912053011357784,-0.0006411446215215228,-0.001998291816562414,0.0022080211842591593,0.9987517626944162,0.00436831451102496,right,0.0007878541946411133,-0.09983719521413002,-0.010399193548440233,-9.757811442551017,-0.04989657905269494,0.012318452820181847,0.0002691076369956136,0.9774439336746931,-0.0033501610159873962
1746575968999777800,10.80477783203125,-0.00113835224659645,0.00682531064376235,-0.0006801353717052484,-0.003271819092333317,0.0022761187771080547,0.9987657630627946,0.004501308427544437,right,-0.0010313987731933594,-0.0992668029222273,-0.011109241513937013,-9.758366153824328,-0.04961161228136017,0.015307771041989326,-0.00029504764825105667,0.9718779701106249,-0.0019125789403915405
1746575969039777800,10.84477783203125,-0.0010695311162511644,0.004933048039674759,-0.0006511840468595095,0.0019507138058543205,0.002395232743906297,0.9987779392954322,0.0047434593908411106,right,-0.0013635754585266113,-0.0987630276248004,-0.01043818184346892,-9.758855398645997,-0.049360035180751625,0.005434165708720684,0.0003288177540525794,0.966961848757416,0.0014306902885437012
1746575969079777800,10.88477783203125,-0.0009211830141022856,-0.0022192196920514107,-0.0005783254189733859,0.006707199849188328,0.0024157269789307,0.998777264217207,0.004791820375668838,right,-0.0009685754776000977,-0.0987893705048089,-0.008990450128522934,-9.758831433248519,-0.049373354686996544,-0.01055020559579134,0.0010928953997790813,0.9672188922584056,0.0014035925269126892
1746575969119777800,10.92477783203125,-0.0007409111845348987,0.0009389936458319426,-0.0004869399044439277,0.0027131354436278343,0.0023706869427318603,0.9987636920120269,0.004710400592941527,right,-0.002460002899169922,-0.09934657307718617,-0.00723080691594805,-9.758292504066228,-0.04965184702823338,-0.016321882605552673,0.0007265354506671429,0.9726564071372151,-0.0019231140613555908
1746575969159777800,10.96477783203125,-0.0007378381316855172,0.009477291256189346,-0.0004898638534363458,-0.0028104418888688087,0.0024469741502215533,0.9987497051971732,0.004863179589556297,right,-0.0029732584953308105,-0.09989894109982898,-0.0072004214816610325,-9.757753574883937,-0.04992765666075193,-0.01082741841673851,0.000018510385416448116,0.9780464296124874,-0.0033488571643829346
1746575969199777800,11.00477783203125,-0.0009486520122994799,0.01900355890393257,-0.0006106054759190064,-0.009555861353874207,0.002754214353940359,0.9987419306598873,0.005467797670825641,right,-0.003400146961212158,-0.1001745165935776,-0.009257234709637123,-9.757482356727122,-0.050064833224932395,-0.009423810057342052,-0.00031585682881996036,0.9807353764355182,0.001019202172756195
1746575969239777800,11.04477783203125,-0.001281191876336831,0.009370719082653522,-0.000789958267375172,-0.0048768529668450356,0.0030129306531686854,0.9987283868278264,0.005968964329523929,right,-0.0012317895889282227,-0.10068104344753775,-0.012501347751240245,-9.756980252423881,-0.05031712107902343,-0.013687008991837502,-0.0004757189890369773,0.985677728208527,0.0011757910251617432
1746575969279777800,11.08477783203125,-0.001476611415895675,-0.002483304589986801,-0.000886430188551667,0.0046735163778066635,0.0029817477904239913,0.998716029287328,0.005896384770896208,right,-0.00007712841033935547,-0.10117110620495544,-0.014407336636190302,-9.756493345689773,-0.050561578210422634,-0.01189367100596428,0.001025063102133572,0.9904591172661632,0.0024381503462791443
1746575969319777800,11.12477783203125,-0.0014013268411948077,-0.008252520114183426,-0.0008399005936702734,0.004211280029267073,0.002785121903789032,0.9986992132652377,0.005506053815976926,right,-0.00003713369369506836,-0.10185815529390597,-0.01367186653506942,-9.755811793166398,-0.050904934983936286,-0.015174237079918385,0.0009384187869727612,0.9971620489709079,0.0011089891195297241
1746575969359778000,11.164778076171874,-0.001272939722923749,-0.0028548859991133213,-0.0007694611099137029,0.0009501772001385689,0.002643059587038222,0.9986848190938297,0.005227810097092123,right,-0.0009548068046569824,-0.10244208868814093,-0.012418603654520119,-9.755229609364271,-0.051196801802276475,-0.006449977867305279,-0.0000348344910889864,1.002858653177321,0.001161821186542511
1746575969399777800,11.20477783203125,-0.0014141019860985662,0.002966558560729027,-0.0008412491882619905,-0.0070032645016908646,0.002663047838949913,0.9986754783684106,0.005260396966990685,right,-0.0012851357460021973,-0.1028015497483128,-0.013795162979530868,-9.754866621270775,-0.051376095908111215,-0.005880558863282204,0.00020748667884618044,1.0063651999935508,0.001439020037651062
1746575969439777800,11.24477783203125,-0.0015644368033486747,0.010860818438231945,-0.0009241502140913863,-0.0010218443349003792,0.002812186964044703,0.998668151622928,0.005551166687787378,right,-0.0010793805122375488,-0.10306798324434553,-0.015261238635343033,-9.75459598763585,-0.05150880209298066,-0.0066821821965277195,0.0005375496111810207,1.008964203510806,0.0041308775544166565
1746575969479777800,11.28477783203125,-0.0017045289997030158,-0.003083457238972187,-0.0010016434293805734,-0.0072982232086360455,0.0029539719231819386,0.9986601856284777,0.005827684347761194,right,0.0004820823669433594,-0.10336034490364883,-0.01662727770798374,-9.754298465994,-0.05165445048622903,0.0006465697661042213,-0.00018419604748487473,1.0118160127453506,0.0023025423288345337
1746575969519777800,11.32477783203125,-0.001792798612139193,-0.005505832843482494,-0.001046219701246401,-0.0036728600971400738,0.002971657824416186,0.9986654649479659,0.005858693314354666,right,-0.002762436866760254,-0.1031517528046092,-0.017488663185626502,-9.754507724830507,-0.051550147859246206,0.004841984249651432,-0.0013029563706368208,1.0097813651125878,0.005035400390625
1746575969559777800,11.36477783203125,-0.001976848793441527,-0.0036237239837646484,-0.0011348855069804559,-0.0030106031335890293,0.0029134658985865832,0.9986653327633056,0.005732646104263939,right,-0.0018585920333862305,-0.10316058146812475,-0.019283963945938738,-9.754495449870824,-0.05155435370922869,0.002420504344627261,-0.00044724345207214355,1.0098674359608442,0.001699194312095642
1746575969599777800,11.40477783203125,-0.0019820947363205117,0.004122998099774122,-0.0011388223568976664,0.0011275000870227814,0.0029450473600064215,0.9986707829811191,0.0057958061410594884,right,-0.000643312931060791,-0.10294191884518968,-0.019335573118878527,-9.754715814623236,-0.051445128808028956,0.013948279432952404,-0.0001548051368445158,1.0077345155853779,0.0005881413817405701
1746575969639777800,11.44477783203125,-0.0018353112245912552,0.0012798949610441923,-0.0010681836375642352,0.004025639034807682,0.0030068226284275285,0.9986836214735271,0.005927467116012218,right,-0.0007594823837280273,-0.10243992885688775,-0.017904666957858716,-9.755223179623483,-0.05119460786721103,0.012993896380066872,0.0005646435311064124,1.0028376103892922,0.0019363462924957275
1746575969679777800,11.48477783203125,-0.0015126018585696936,-0.005299012176692486,-0.0009049276049976228,0.007623937912285328,0.0029682151407548828,0.998693789381593,0.005866929484037367,right,-0.0017026662826538086,-0.10204961249648732,-0.014757155862502985,-9.755618900942801,-0.05100022025670869,0.005810523871332407,0.0008177997078746557,0.9990298886694013,0.0023570582270622253
1746575969719777800,11.52477783203125,-0.001191060096595697,-0.004755941219627857,-0.0007379538175683325,0.006619193125516176,0.0028353100757484376,0.9986951273000306,0.005617206743825565,right,-0.0014473199844360352,-0.10201728832579131,-0.01162035453247372,-9.755655725821851,-0.05098464736586793,0.00017724186182022095,0.0006543395575135946,0.9987145391099155,-0.000057913362979888916
1746575969759777800,11.56477783203125,-0.0009681813984554838,0.004666841588914394,-0.0006263764338405542,0.0029064978007227182,0.0028204037472679905,0.9986917584149237,0.0055986869800703784,right,-0.0018330216407775879,-0.1021534674040449,-0.009445894857755047,-9.755521870309114,-0.05105296925437456,-0.0015063862083479762,0.00041594350477680564,1.0000430112347005,-0.000501483678817749
1746575969799777800,11.60477783203125,-0.0009570296482459218,0.01013943087309599,-0.0006280028777687933,-0.006024160422384739,0.002957843160301959,0.9986886704438318,0.00587446113653939,right,-0.0023964643478393555,-0.10226039168701515,-0.009337000827159499,-9.7554149028033,-0.051106289069581055,0.0027589849196374416,0.0005201046587899327,1.0010861636120825,-0.0010904669761657715
1746575969839777800,11.64477783203125,-0.0011925550461961236,0.009262838400900364,-0.0007576719834210861,-0.008835799060761929,0.0032035998498827416,0.9986912065038633,0.006354624948978006,right,-0.0023341774940490723,-0.1021275223544439,-0.011634806607867358,-9.755545835706592,-0.05103941413230019,-0.0015413649380207062,-0.0011023125844076276,0.9997899132564664,0.0024441704154014587
1746575969879777800,11.68477783203125,-0.0015055833090424603,0.00329123018309474,-0.0009146363555180087,-0.0031364490278065205,0.0032234123245598835,0.9986901881190859,0.006378284851842476,right,-0.0017085075378417969,-0.10216011898108865,-0.014688517922948813,-9.755509010827542,-0.0510551791511561,-0.0011039001401513815,-0.00006902101449668407,1.0001079662296921,0.0020262226462364197
1746575969919777800,11.72477783203125,-0.0018186107399682456,-0.002680378034710884,-0.0010716016388210236,0.002562901470810175,0.0032432539577702474,0.9986891635732753,0.006401993312019213,right,-0.0010829567909240723,-0.10219272720633868,-0.017742200696922374,-9.75547101690471,-0.051070943977478904,-0.0006664353422820568,0.0009642666555009782,1.0004260192029177,0.0016082748770713806
1746575969959777800,11.76477783203125,-0.0018679593715083356,-0.0019157032947987318,-0.001091963592423187,0.002273713005706668,0.0031551804271065594,0.9986845622520226,0.006222943689050776,right,-0.0008570551872253418,-0.10238367938890712,-0.018223262212134432,-9.755279293724893,-0.051166311604786026,-0.003672135528177023,0.0007347480859607458,1.0022888904653489,0.001203879714012146
1746575969999777800,11.80477783203125,-0.0017244159413125765,0.001107488526031375,-0.0010190964441535253,0.0014845936093479395,0.003121343883177792,0.9986786747093753,0.006162368774290096,right,-0.0016971230506896973,-0.102620999360542,-0.01682254569340148,-9.75504314688146,-0.0512850713275057,-0.004350191913545132,-0.0014657654101029038,1.0046039624746887,0.001064293086528778
1746575970039777800,11.84477783203125,-0.0019310775021560973,0.004303743131458759,-0.0011259188325460085,-0.005746153183281422,0.003188228784630731,0.9986705734649498,0.006285457652348683,right,-0.0025356411933898926,-0.10292656101955668,-0.018837944061355666,-9.754732181236147,-0.05143725505005221,-0.007065695710480213,-0.001015421818010509,1.0075846587859094,0.003016941249370575
1746575970079777800,11.88477783203125,-0.001987903505880394,0.006781315430998802,-0.0011619179627677819,0.000574145931750536,0.003329909248230594,0.9986634824364424,0.006566060304267008,right,-0.00196075439453125,-0.10317880653006241,-0.01939176028552465,-9.754476745170354,-0.0515629620528353,-0.006269675679504871,-0.0012342617847025394,1.0100452767457813,0.0045612528920173645
1746575970119777800,11.92477783203125,-0.0021093840562725697,-0.0019719377160072327,-0.0012236853855128356,-0.003205063519999385,0.0033501832718062763,0.9986597469419702,0.0066002668094781915,right,-0.0002040266990661621,-0.10331852405286067,-0.020576442308735565,-9.754332952785491,-0.051632504115811356,0.006269773468375206,-0.00024455972015857697,1.0114080895315856,0.001185886561870575
1746575970159777800,11.96477783203125,-0.002056077396747121,-0.005468293093144894,-0.0011930761576357733,0.004294263198971748,0.003282141903575976,0.9986690063517358,0.006467057410961977,right,-0.0006327629089355469,-0.10297057397231672,-0.020057192791160194,-9.754685419484973,-0.051458928309139625,0.008100563660264015,-0.0010054672602564096,1.0080139901138843,0.0024549588561058044
1746575970199777800,12.00477783203125,-0.001949291277555915,-0.0030124522745609283,-0.001133540204635647,0.006522427313029766,0.0031682096692546,0.9986776057318862,0.006244652251913462,right,0.000756382942199707,-0.10265008640177867,-0.019016157022339757,-9.755010413655638,-0.051299201479857455,0.007535639684647322,-0.0011525672161951661,1.0048876747868956,-0.00046693533658981323
1746575970239777800,12.04477783203125,-0.0016530307223596148,0.0057637058198452,-0.0009863464203280796,0.012370165437459946,0.00318520058433311,0.9986864434447605,0.006294124048277022,right,0.0002582669258117676,-0.1023093351251556,-0.016126696358260233,-9.755357035136223,-0.05112949300245008,0.006629128474742174,-0.0003934454871341586,1.001563571865484,-0.00015941262245178223
1746575970279777800,12.08477783203125,-0.0011477603378950657,-0.00035292143002152443,-0.000736459434140804,0.013998440466821194,0.0032250707071959832,0.9986911170398624,0.006399912053113798,right,-0.0009064078330993652,-0.10212735606183768,-0.01119781027995632,-9.75554642022848,-0.05103938809544414,0.002094566822052002,0.0018514933763071895,0.9997883058212697,0.001776188611984253
1746575970319777800,12.12477783203125,-0.0007165100003310861,-0.00024245391250588,-0.0005154172534878504,0.008544247597455978,0.003092766659298049,0.9986831898797495,0.006156930801066837,right,-0.0021378397941589355,-0.10245564549945615,-0.0069904907874733906,-9.755221426057815,-0.051204077324038984,-0.0038862619549036026,0.0015698191709816456,1.0029909012548626,-0.000014543533325195312
1746575970359778000,12.164778076171874,-0.0002853238836230395,-0.00013198638043832034,-0.0002943749317582797,0.0030900556594133377,0.002960474933466899,0.9986753210367033,0.0059141099542121016,right,-0.003369450569152832,-0.10278407210305134,-0.002784080329276912,-9.7548935092777,-0.051368770389978925,-0.009867090731859207,0.0012882367009297013,1.0061947387974708,-0.001805417239665985
1746575970399777800,12.20477783203125,-0.0001596220826045412,0.013851137831807137,-0.0002384442667788466,-0.0029402459040284157,0.0030800076853679534,0.9986662693440919,0.006159985396995573,right,-0.0019910335540771484,-0.10312382228079674,-0.001557817764912761,-9.754551563972234,-0.05153857450288949,-0.002742439042776823,-0.0003646271943580359,1.0095089048467576,-0.002015434205532074
1746575970439777800,12.24477783203125,-0.00022241604928622505,0.01570115238428116,-0.00028638385685714576,-0.0015850515337660909,0.0034045888876631635,0.9986664665831626,0.00680677138106561,right,-0.000405728816986084,-0.10307508668930446,-0.0021703548925812357,-9.754600663810967,-0.05151405262589544,0.0009374502114951611,0.00034301739651709795,1.0090334693547338,0.0030371621251106262
1746575970479777800,12.28477783203125,-0.00037280983687816165,0.0016848603263497353,-0.00036978811428881487,-0.00028901768382638693,0.0035739337944273013,0.9986690649685386,0.007138155462526722,right,0.0007298588752746582,-0.10294689455510816,-0.003637434053746983,-9.754729258626698,-0.05144973028722689,0.005793305579572916,-0.0002591277298051864,1.0077830309022218,0.0019089803099632263
1746575970519777800,12.32477783203125,-0.0004087710961021802,-0.007419987581670284,-0.00038354837030321517,-0.005111485719680786,0.0034960355872285013,0.9986713908266623,0.006980301044027908,right,-0.0016222000122070312,-0.1028688344509189,-0.003988258783290803,-9.754807584559916,-0.051410715917371515,-0.0016021691262722015,-0.00318113062530756,1.0070215450104325,0.001170821487903595
1746575970559777800,12.36477783203125,-0.00047859586756168423,-0.012570610269904137,-0.0004101995944948194,-0.0019301811698824167,0.003334905017148045,0.998669249943985,0.006654009659869542,right,-0.000050067901611328125,-0.10297314225745399,-0.0046693360972189105,-9.754702370619773,-0.05146274606375568,-0.0020469005685299635,-0.002073508221656084,1.0080390514899045,-0.0005223304033279419
1746575970599777800,12.40477783203125,-0.00026227969032528107,-0.00919752474874258,-0.00029741597502212574,0.005227359011769295,0.0032259862177748794,0.9986607069826864,0.006447041167976727,right,-0.001604914665222168,-0.10331939794410756,-0.0025591444330246302,-9.75435341105163,-0.05163603400006868,-0.016131272539496422,-0.00118699308950454,1.0114166381642222,0.004031620919704437
1746575970639777800,12.44477783203125,-0.000038901227412831885,-0.003329005092382431,-0.00018145674152579742,0.005720237735658884,0.003117010586853774,0.998645840289876,0.0062404310453546405,right,-0.0010207295417785645,-0.10390668919557682,-0.0003802089060895014,-9.75375836776793,-0.05192966392718101,-0.010044446215033531,-0.0005848815781064332,1.017145098813623,0.001756034791469574
1746575970679777800,12.48477783203125,0.00008056085674580471,-0.0027577984146773815,-0.0001193713922822204,-0.0024613100104033947,0.0030561787571800497,0.9986364576851264,0.006124888435189634,right,-0.0022600889205932617,-0.10427584512707314,0.0007849649487878196,-9.753381935670971,-0.05211418246066089,-0.00854724831879139,-0.0009331466862931848,1.0207456805888562,0.0021695420145988464
1746575970719777800,12.52477783203125,-0.000005581202928458111,0.000003779307007789612,-0.000160841260380917,-0.0015270214062184095,0.0030182352596979565,0.9986269907185505,0.0060444593175881115,right,-0.000761866569519043,-0.10464252107592532,-0.00005520947761654042,-9.753007257139682,-0.0522971450129362,-0.0068063074722886086,-0.0003145852533634752,1.0243219316404313,0.0007313787937164307
1746575970759777800,12.56477783203125,-0.00003835362203648001,0.0008930848562158644,-0.000179838390343348,-0.0001588580198585987,0.003061534094587524,0.998619852310189,0.00612949775216406,right,0.0005595684051513672,-0.10491039897996006,-0.0003748284791347032,-9.75273253185153,-0.052430842154432424,-0.003852392314001918,-0.00026372133288532495,1.0269345252916215,0.0022270753979682922
1746575970799777800,12.60477783203125,-0.0000457777221673282,0.001962297596037388,-0.00018469920119233436,0.004253632389008999,0.003083949124232087,0.9986200507135576,0.0061739991495363905,right,-0.0003019571304321289,-0.1049021482422431,-0.0004472340946656913,-9.752740715157985,-0.05242670433125974,0.008167346008121967,0.0003190430870745331,1.0268540804665536,0.0014074593782424927
1746575970839777800,12.64477783203125,0.0000530503816556962,-0.004747023340314627,-0.0001325496885752585,-0.0005217087455093861,0.003029474363104649,0.9986215090124307,0.006070077216165694,right,-0.0024570226669311523,-0.10484968400702624,0.000516613567879358,-9.752794491171837,-0.05240067205244211,0.0035164891742169857,-0.00044147184235043824,1.026342404617369,0.001611866056919098
1746575970879777800,12.68477783203125,0.000045904596213456656,0.000250405166298151,-0.00013296233725910612,0.0012242990778759122,0.0029790226563413203,0.9986304024631836,0.00596860000792934,right,-0.0007260441780090332,-0.10451657315535577,0.00044693773093658817,-9.753135851955413,-0.052234340025210595,0.017634226009249687,0.00000553820063942112,1.023093558889255,-0.0013965293765068054
